image_fam,image_left,image_right,fam_IC_time,fam_max_time,thisN,thisTrialN,thisRepN,trialLoop.thisRepN,trialLoop.thisTrialN,trialLoop.thisN,trialLoop.thisIndex,testLoop.thisRepN,testLoop.thisTrialN,testLoop.thisN,testLoop.thisIndex,thisRow.t,notes,Start_ET.started,image_test.started,Start_ET.stopped,Laughing_Baby.started,Attention_getter.started,Laughing_Baby.stopped,Familiarization.started,ROI_Familiarization.started,imgFam.started,sound_1.started,gaze_sample_index,gaze_time,gaze_x,gaze_y,gaze_in_roi,gaze_time_in_roi,Familiarization.stopped,Central_Fixation.started,central_fixation.started,central_fixation.stopped,Central_Fixation.stopped,Test_Period.started,ROI_right.started,ROI_left.started,imgLeft.started,imgRight.started,trial_time,gaze_in_roi_left,gaze_time_in_roi_left,gaze_in_roi_right,gaze_time_in_roi_right,Test_Period.stopped,sound_1.stopped,participant,session,date,expName,expVersion,psychopyVersion,frameRate,expStart,
,,,,,,,,,,,,,,,,,,0.002491099999929247,0.0043377999999165695,3.002151299999923,,,,,,,,,,,,,,,,,,,,,,,,,,,,,,,876446,001,2026-01-30_11h20.33.129,Test,,2025.2.4,60.007044827070835,2026-01-30 11h20.36.719760 +1300,
fractals/fractal_complex_pair1_a_bright.png,fractals/fractal_complex_pair1_a_bright.png,fractals/fractal_complex_pair1_b_bright.png,5,10,0,0,0,0,0,0,0,,,,,3.0389701999999943,,,,,3.034006199999908,3.0389701999999943,6.003274499999975,6.288674399999991,6.292180599999938,6.292180599999938,6.303170699999941,1,0.00027000000000043656,0.021914058261447482,0.020332545042037964,1,1.6999999843392288e-06,,,,,,,,,,,,,,,,,,876446,001,2026-01-30_11h20.33.129,Test,,2025.2.4,60.007044827070835,2026-01-30 11h20.36.719760 +1300,
fractals/fractal_complex_pair1_a_bright.png,fractals/fractal_complex_pair1_a_bright.png,fractals/fractal_complex_pair1_b_bright.png,5,10,0,0,0,0,0,0,0,,,,,,,,,,,,,,,,,2,0.003719899999964582,0.021914058261447482,0.020332545042037964,1,0.0034468000000060783,,,,,,,,,,,,,,,,,,876446,001,2026-01-30_11h20.33.129,Test,,2025.2.4,60.007044827070835,2026-01-30 11h20.36.719760 +1300,
fractals/fractal_complex_pair1_a_bright.png,fractals/fractal_complex_pair1_a_bright.png,fractals/fractal_complex_pair1_b_bright.png,5,10,0,0,0,0,0,0,0,,,,,,,,,,,,,,,,,3,0.005489299999908326,0.021914058261447482,0.020332545042037964,1,0.005215199999952347,,,,,,,,,,,,,,,,,,876446,001,2026-01-30_11h20.33.129,Test,,2025.2.4,60.007044827070835,2026-01-30 11h20.36.719760 +1300,
fractals/fractal_complex_pair1_a_bright.png,fractals/fractal_complex_pair1_a_bright.png,fractals/fractal_complex_pair1_b_bright.png,5,10,0,0,0,0,0,0,0,,,,,,,,,,,,,,,,,4,0.013586599999939608,0.023778915405273438,0.02010849118232727,1,0.013313499999981104,,,,,,,,,,,,,,,,,,876446,001,2026-01-30_11h20.33.129,Test,,2025.2.4,60.007044827070835,2026-01-30 11h20.36.719760 +1300,
fractals/fractal_complex_pair1_a_bright.png,fractals/fractal_complex_pair1_a_bright.png,fractals/fractal_complex_pair1_b_bright.png,5,10,0,0,0,0,0,0,0,,,,,,,,,,,,,,,,,5,0.030270199999904435,0.025281005435519747,0.021062716841697693,1,0.029997399999956542,,,,,,,,,,,,,,,,,,876446,001,2026-01-30_11h20.33.129,Test,,2025.2.4,60.007044827070835,2026-01-30 11h20.36.719760 +1300,
fractals/fractal_complex_pair1_a_bright.png,fractals/fractal_complex_pair1_a_bright.png,fractals/fractal_complex_pair1_b_bright.png,5,10,0,0,0,0,0,0,0,,,,,,,,,,,,,,,,,6,0.04699349999998503,0.02395608690049913,0.02061888575553894,1,0.04672169999992093,,,,,,,,,,,,,,,,,,876446,001,2026-01-30_11h20.33.129,Test,,2025.2.4,60.007044827070835,2026-01-30 11h20.36.719760 +1300,
fractals/fractal_complex_pair1_a_bright.png,fractals/fractal_complex_pair1_a_bright.png,fractals/fractal_complex_pair1_b_bright.png,5,10,0,0,0,0,0,0,0,,,,,,,,,,,,,,,,,7,0.06363699999997152,0.021765602959526908,0.020828962326049805,1,0.06336639999994986,,,,,,,,,,,,,,,,,,876446,001,2026-01-30_11h20.33.129,Test,,2025.2.4,60.007044827070835,2026-01-30 11h20.36.719760 +1300,
fractals/fractal_complex_pair1_a_bright.png,fractals/fractal_complex_pair1_a_bright.png,fractals/fractal_complex_pair1_b_bright.png,5,10,0,0,0,0,0,0,0,,,,,,,,,,,,,,,,,8,0.08027529999992566,0.023961544036865234,0.019892752170562744,1,0.08000659999993331,,,,,,,,,,,,,,,,,,876446,001,2026-01-30_11h20.33.129,Test,,2025.2.4,60.007044827070835,2026-01-30 11h20.36.719760 +1300,
fractals/fractal_complex_pair1_a_bright.png,fractals/fractal_complex_pair1_a_bright.png,fractals/fractal_complex_pair1_b_bright.png,5,10,0,0,0,0,0,0,0,,,,,,,,,,,,,,,,,9,0.09717589999991105,0.030664232042100694,0.007364243268966675,1,0.09690939999995862,,,,,,,,,,,,,,,,,,876446,001,2026-01-30_11h20.33.129,Test,,2025.2.4,60.007044827070835,2026-01-30 11h20.36.719760 +1300,
fractals/fractal_complex_pair1_a_bright.png,fractals/fractal_complex_pair1_a_bright.png,fractals/fractal_complex_pair1_b_bright.png,5,10,0,0,0,0,0,0,0,,,,,,,,,,,,,,,,,10,0.11369639999998071,0.12129131952921549,-0.16113436222076416,1,0.11343360000000757,,,,,,,,,,,,,,,,,,876446,001,2026-01-30_11h20.33.129,Test,,2025.2.4,60.007044827070835,2026-01-30 11h20.36.719760 +1300,
fractals/fractal_complex_pair1_a_bright.png,fractals/fractal_complex_pair1_a_bright.png,fractals/fractal_complex_pair1_b_bright.png,5,10,0,0,0,0,0,0,0,,,,,,,,,,,,,,,,,11,0.13042129999996632,0.19502502017550996,-0.29506003856658936,0,0.24359099999992395,,,,,,,,,,,,,,,,,,876446,001,2026-01-30_11h20.33.129,Test,,2025.2.4,60.007044827070835,2026-01-30 11h20.36.719760 +1300,
fractals/fractal_complex_pair1_a_bright.png,fractals/fractal_complex_pair1_a_bright.png,fractals/fractal_complex_pair1_b_bright.png,5,10,0,0,0,0,0,0,0,,,,,,,,,,,,,,,,,12,0.1470625999999129,0.1938827832539876,-0.30698129534721375,0,0.24359099999992395,,,,,,,,,,,,,,,,,,876446,001,2026-01-30_11h20.33.129,Test,,2025.2.4,60.007044827070835,2026-01-30 11h20.36.719760 +1300,
fractals/fractal_complex_pair1_a_bright.png,fractals/fractal_complex_pair1_a_bright.png,fractals/fractal_complex_pair1_b_bright.png,5,10,0,0,0,0,0,0,0,,,,,,,,,,,,,,,,,13,0.16374719999998888,0.19057014253404406,-0.30377110838890076,0,0.24359099999992395,,,,,,,,,,,,,,,,,,876446,001,2026-01-30_11h20.33.129,Test,,2025.2.4,60.007044827070835,2026-01-30 11h20.36.719760 +1300,
fractals/fractal_complex_pair1_a_bright.png,fractals/fractal_complex_pair1_a_bright.png,fractals/fractal_complex_pair1_b_bright.png,5,10,0,0,0,0,0,0,0,,,,,,,,,,,,,,,,,14,0.1805651999999327,0.19090996848212347,-0.3019961714744568,0,0.24359099999992395,,,,,,,,,,,,,,,,,,876446,001,2026-01-30_11h20.33.129,Test,,2025.2.4,60.007044827070835,2026-01-30 11h20.36.719760 +1300,
fractals/fractal_complex_pair1_a_bright.png,fractals/fractal_complex_pair1_a_bright.png,fractals/fractal_complex_pair1_b_bright.png,5,10,0,0,0,0,0,0,0,,,,,,,,,,,,,,,,,15,0.1971225999999433,0.18930959701538086,-0.30170556902885437,0,0.24359099999992395,,,,,,,,,,,,,,,,,,876446,001,2026-01-30_11h20.33.129,Test,,2025.2.4,60.007044827070835,2026-01-30 11h20.36.719760 +1300,
fractals/fractal_complex_pair1_a_bright.png,fractals/fractal_complex_pair1_a_bright.png,fractals/fractal_complex_pair1_b_bright.png,5,10,0,0,0,0,0,0,0,,,,,,,,,,,,,,,,,16,0.21414369999990868,0.15668212042914495,-0.265667200088501,0,0.24359099999992395,,,,,,,,,,,,,,,,,,876446,001,2026-01-30_11h20.33.129,Test,,2025.2.4,60.007044827070835,2026-01-30 11h20.36.719760 +1300,
fractals/fractal_complex_pair1_a_bright.png,fractals/fractal_complex_pair1_a_bright.png,fractals/fractal_complex_pair1_b_bright.png,5,10,0,0,0,0,0,0,0,,,,,,,,,,,,,,,,,17,0.2304237999999259,0.04209582010904948,-0.05995762348175049,1,5.600000008598727e-06,,,,,,,,,,,,,,,,,,876446,001,2026-01-30_11h20.33.129,Test,,2025.2.4,60.007044827070835,2026-01-30 11h20.36.719760 +1300,
fractals/fractal_complex_pair1_a_bright.png,fractals/fractal_complex_pair1_a_bright.png,fractals/fractal_complex_pair1_b_bright.png,5,10,0,0,0,0,0,0,0,,,,,,,,,,,,,,,,,18,0.24729359999992084,-0.021195941501193576,0.030262187123298645,1,0.016868799999997464,,,,,,,,,,,,,,,,,,876446,001,2026-01-30_11h20.33.129,Test,,2025.2.4,60.007044827070835,2026-01-30 11h20.36.719760 +1300,
fractals/fractal_complex_pair1_a_bright.png,fractals/fractal_complex_pair1_a_bright.png,fractals/fractal_complex_pair1_b_bright.png,5,10,0,0,0,0,0,0,0,,,,,,,,,,,,,,,,,19,0.2637750999999753,-0.021286381615532767,0.023412570357322693,1,0.03334970000003068,,,,,,,,,,,,,,,,,,876446,001,2026-01-30_11h20.33.129,Test,,2025.2.4,60.007044827070835,2026-01-30 11h20.36.719760 +1300,
fractals/fractal_complex_pair1_a_bright.png,fractals/fractal_complex_pair1_a_bright.png,fractals/fractal_complex_pair1_b_bright.png,5,10,0,0,0,0,0,0,0,,,,,,,,,,,,,,,,,20,0.28042169999991984,-0.02031728956434462,0.022827208042144775,1,0.04999910000003638,,,,,,,,,,,,,,,,,,876446,001,2026-01-30_11h20.33.129,Test,,2025.2.4,60.007044827070835,2026-01-30 11h20.36.719760 +1300,
fractals/fractal_complex_pair1_a_bright.png,fractals/fractal_complex_pair1_a_bright.png,fractals/fractal_complex_pair1_b_bright.png,5,10,0,0,0,0,0,0,0,,,,,,,,,,,,,,,,,21,0.2973336999999674,-0.01912257406446669,0.023083224892616272,1,0.06690839999998843,,,,,,,,,,,,,,,,,,876446,001,2026-01-30_11h20.33.129,Test,,2025.2.4,60.007044827070835,2026-01-30 11h20.36.719760 +1300,
fractals/fractal_complex_pair1_a_bright.png,fractals/fractal_complex_pair1_a_bright.png,fractals/fractal_complex_pair1_b_bright.png,5,10,0,0,0,0,0,0,0,,,,,,,,,,,,,,,,,22,0.31383229999994455,-0.018483135435316298,0.02167680859565735,1,0.08340629999997873,,,,,,,,,,,,,,,,,,876446,001,2026-01-30_11h20.33.129,Test,,2025.2.4,60.007044827070835,2026-01-30 11h20.36.719760 +1300,
fractals/fractal_complex_pair1_a_bright.png,fractals/fractal_complex_pair1_a_bright.png,fractals/fractal_complex_pair1_b_bright.png,5,10,0,0,0,0,0,0,0,,,,,,,,,,,,,,,,,23,0.3304991999999629,-0.017266114552815754,0.02178002893924713,1,0.10007240000004458,,,,,,,,,,,,,,,,,,876446,001,2026-01-30_11h20.33.129,Test,,2025.2.4,60.007044827070835,2026-01-30 11h20.36.719760 +1300,
fractals/fractal_complex_pair1_a_bright.png,fractals/fractal_complex_pair1_a_bright.png,fractals/fractal_complex_pair1_b_bright.png,5,10,0,0,0,0,0,0,0,,,,,,,,,,,,,,,,,24,0.34711029999994025,-0.01720285415649414,0.019861295819282532,1,0.11668500000007498,,,,,,,,,,,,,,,,,,876446,001,2026-01-30_11h20.33.129,Test,,2025.2.4,60.007044827070835,2026-01-30 11h20.36.719760 +1300,
fractals/fractal_complex_pair1_a_bright.png,fractals/fractal_complex_pair1_a_bright.png,fractals/fractal_complex_pair1_b_bright.png,5,10,0,0,0,0,0,0,0,,,,,,,,,,,,,,,,,25,0.3639893999999231,-0.01774120330810547,0.018691658973693848,1,0.13356320000002597,,,,,,,,,,,,,,,,,,876446,001,2026-01-30_11h20.33.129,Test,,2025.2.4,60.007044827070835,2026-01-30 11h20.36.719760 +1300,
fractals/fractal_complex_pair1_a_bright.png,fractals/fractal_complex_pair1_a_bright.png,fractals/fractal_complex_pair1_b_bright.png,5,10,0,0,0,0,0,0,0,,,,,,,,,,,,,,,,,26,0.38042539999992186,-0.01818953620062934,0.02134452760219574,1,0.14999780000005103,,,,,,,,,,,,,,,,,,876446,001,2026-01-30_11h20.33.129,Test,,2025.2.4,60.007044827070835,2026-01-30 11h20.36.719760 +1300,
fractals/fractal_complex_pair1_a_bright.png,fractals/fractal_complex_pair1_a_bright.png,fractals/fractal_complex_pair1_b_bright.png,5,10,0,0,0,0,0,0,0,,,,,,,,,,,,,,,,,27,0.3973205999999436,-0.018226120207044814,0.017659276723861694,1,0.16689519999999902,,,,,,,,,,,,,,,,,,876446,001,2026-01-30_11h20.33.129,Test,,2025.2.4,60.007044827070835,2026-01-30 11h20.36.719760 +1300,
fractals/fractal_complex_pair1_a_bright.png,fractals/fractal_complex_pair1_a_bright.png,fractals/fractal_complex_pair1_b_bright.png,5,10,0,0,0,0,0,0,0,,,,,,,,,,,,,,,,,28,0.4138388000000077,-0.01739713880750868,0.017639443278312683,1,0.1834131000000525,,,,,,,,,,,,,,,,,,876446,001,2026-01-30_11h20.33.129,Test,,2025.2.4,60.007044827070835,2026-01-30 11h20.36.719760 +1300,
fractals/fractal_complex_pair1_a_bright.png,fractals/fractal_complex_pair1_a_bright.png,fractals/fractal_complex_pair1_b_bright.png,5,10,0,0,0,0,0,0,0,,,,,,,,,,,,,,,,,29,0.4306735000000117,-0.018709633085462783,0.018065840005874634,1,0.20024829999999838,,,,,,,,,,,,,,,,,,876446,001,2026-01-30_11h20.33.129,Test,,2025.2.4,60.007044827070835,2026-01-30 11h20.36.719760 +1300,
fractals/fractal_complex_pair1_a_bright.png,fractals/fractal_complex_pair1_a_bright.png,fractals/fractal_complex_pair1_b_bright.png,5,10,0,0,0,0,0,0,0,,,,,,,,,,,,,,,,,30,0.44716169999992417,-0.01888261901007758,0.021304771304130554,1,0.2167351000000508,,,,,,,,,,,,,,,,,,876446,001,2026-01-30_11h20.33.129,Test,,2025.2.4,60.007044827070835,2026-01-30 11h20.36.719760 +1300,
fractals/fractal_complex_pair1_a_bright.png,fractals/fractal_complex_pair1_a_bright.png,fractals/fractal_complex_pair1_b_bright.png,5,10,0,0,0,0,0,0,0,,,,,,,,,,,,,,,,,31,0.46394809999992503,-0.01743393474155002,0.018822580575942993,1,0.23352250000004915,,,,,,,,,,,,,,,,,,876446,001,2026-01-30_11h20.33.129,Test,,2025.2.4,60.007044827070835,2026-01-30 11h20.36.719760 +1300,
fractals/fractal_complex_pair1_a_bright.png,fractals/fractal_complex_pair1_a_bright.png,fractals/fractal_complex_pair1_b_bright.png,5,10,0,0,0,0,0,0,0,,,,,,,,,,,,,,,,,32,0.48068739999996524,-0.017031881544325087,0.015187129378318787,1,0.2502643000000262,,,,,,,,,,,,,,,,,,876446,001,2026-01-30_11h20.33.129,Test,,2025.2.4,60.007044827070835,2026-01-30 11h20.36.719760 +1300,
fractals/fractal_complex_pair1_a_bright.png,fractals/fractal_complex_pair1_a_bright.png,fractals/fractal_complex_pair1_b_bright.png,5,10,0,0,0,0,0,0,0,,,,,,,,,,,,,,,,,33,0.4972345999999561,-0.017450067732069228,0.017481818795204163,1,0.2668115000000171,,,,,,,,,,,,,,,,,,876446,001,2026-01-30_11h20.33.129,Test,,2025.2.4,60.007044827070835,2026-01-30 11h20.36.719760 +1300,
fractals/fractal_complex_pair1_a_bright.png,fractals/fractal_complex_pair1_a_bright.png,fractals/fractal_complex_pair1_b_bright.png,5,10,0,0,0,0,0,0,0,,,,,,,,,,,,,,,,,34,0.5140011999999388,-0.02070347468058268,0.015786856412887573,1,0.28357630000004974,,,,,,,,,,,,,,,,,,876446,001,2026-01-30_11h20.33.129,Test,,2025.2.4,60.007044827070835,2026-01-30 11h20.36.719760 +1300,
fractals/fractal_complex_pair1_a_bright.png,fractals/fractal_complex_pair1_a_bright.png,fractals/fractal_complex_pair1_b_bright.png,5,10,0,0,0,0,0,0,0,,,,,,,,,,,,,,,,,35,0.530611399999998,-0.019319030973646376,0.015933796763420105,1,0.3001867000000402,,,,,,,,,,,,,,,,,,876446,001,2026-01-30_11h20.33.129,Test,,2025.2.4,60.007044827070835,2026-01-30 11h20.36.719760 +1300,
fractals/fractal_complex_pair1_a_bright.png,fractals/fractal_complex_pair1_a_bright.png,fractals/fractal_complex_pair1_b_bright.png,5,10,0,0,0,0,0,0,0,,,,,,,,,,,,,,,,,36,0.5471463000000085,-0.019962337281968858,0.011964946985244751,1,0.31672179999998207,,,,,,,,,,,,,,,,,,876446,001,2026-01-30_11h20.33.129,Test,,2025.2.4,60.007044827070835,2026-01-30 11h20.36.719760 +1300,
fractals/fractal_complex_pair1_a_bright.png,fractals/fractal_complex_pair1_a_bright.png,fractals/fractal_complex_pair1_b_bright.png,5,10,0,0,0,0,0,0,0,,,,,,,,,,,,,,,,,37,0.5638280999999097,-0.01961215337117513,0.012228786945343018,1,0.3334041000000525,,,,,,,,,,,,,,,,,,876446,001,2026-01-30_11h20.33.129,Test,,2025.2.4,60.007044827070835,2026-01-30 11h20.36.719760 +1300,
fractals/fractal_complex_pair1_a_bright.png,fractals/fractal_complex_pair1_a_bright.png,fractals/fractal_complex_pair1_b_bright.png,5,10,0,0,0,0,0,0,0,,,,,,,,,,,,,,,,,38,0.5806292999999414,-0.018619484371609155,0.012230336666107178,1,0.3502021000000468,,,,,,,,,,,,,,,,,,876446,001,2026-01-30_11h20.33.129,Test,,2025.2.4,60.007044827070835,2026-01-30 11h20.36.719760 +1300,
fractals/fractal_complex_pair1_a_bright.png,fractals/fractal_complex_pair1_a_bright.png,fractals/fractal_complex_pair1_b_bright.png,5,10,0,0,0,0,0,0,0,,,,,,,,,,,,,,,,,39,0.5971353999999565,-0.019752926296657983,0.011200770735740662,1,0.36670909999998,,,,,,,,,,,,,,,,,,876446,001,2026-01-30_11h20.33.129,Test,,2025.2.4,60.007044827070835,2026-01-30 11h20.36.719760 +1300,
fractals/fractal_complex_pair1_a_bright.png,fractals/fractal_complex_pair1_a_bright.png,fractals/fractal_complex_pair1_b_bright.png,5,10,0,0,0,0,0,0,0,,,,,,,,,,,,,,,,,40,0.6139491999999791,-0.019398662779066298,0.01227925717830658,1,0.3835215999999946,,,,,,,,,,,,,,,,,,876446,001,2026-01-30_11h20.33.129,Test,,2025.2.4,60.007044827070835,2026-01-30 11h20.36.719760 +1300,
fractals/fractal_complex_pair1_a_bright.png,fractals/fractal_complex_pair1_a_bright.png,fractals/fractal_complex_pair1_b_bright.png,5,10,0,0,0,0,0,0,0,,,,,,,,,,,,,,,,,41,0.6304890000000114,-0.018766615125868056,0.012472271919250488,1,0.4000649000000749,,,,,,,,,,,,,,,,,,876446,001,2026-01-30_11h20.33.129,Test,,2025.2.4,60.007044827070835,2026-01-30 11h20.36.719760 +1300,
fractals/fractal_complex_pair1_a_bright.png,fractals/fractal_complex_pair1_a_bright.png,fractals/fractal_complex_pair1_b_bright.png,5,10,0,0,0,0,0,0,0,,,,,,,,,,,,,,,,,42,0.6472574999999097,-0.021196630265977647,0.011262953281402588,1,0.41683320000004187,,,,,,,,,,,,,,,,,,876446,001,2026-01-30_11h20.33.129,Test,,2025.2.4,60.007044827070835,2026-01-30 11h20.36.719760 +1300,
fractals/fractal_complex_pair1_a_bright.png,fractals/fractal_complex_pair1_a_bright.png,fractals/fractal_complex_pair1_b_bright.png,5,10,0,0,0,0,0,0,0,,,,,,,,,,,,,,,,,43,0.6638712000000169,-0.020409504572550453,0.011372745037078857,1,0.4334446000000298,,,,,,,,,,,,,,,,,,876446,001,2026-01-30_11h20.33.129,Test,,2025.2.4,60.007044827070835,2026-01-30 11h20.36.719760 +1300,
fractals/fractal_complex_pair1_a_bright.png,fractals/fractal_complex_pair1_a_bright.png,fractals/fractal_complex_pair1_b_bright.png,5,10,0,0,0,0,0,0,0,,,,,,,,,,,,,,,,,44,0.6804528999999775,-0.020852936638726127,0.009907811880111694,1,0.4500269999999773,,,,,,,,,,,,,,,,,,876446,001,2026-01-30_11h20.33.129,Test,,2025.2.4,60.007044827070835,2026-01-30 11h20.36.719760 +1300,
fractals/fractal_complex_pair1_a_bright.png,fractals/fractal_complex_pair1_a_bright.png,fractals/fractal_complex_pair1_b_bright.png,5,10,0,0,0,0,0,0,0,,,,,,,,,,,,,,,,,45,0.6971358999999211,-0.02071311738755968,0.010172873735427856,1,0.4667103000000452,,,,,,,,,,,,,,,,,,876446,001,2026-01-30_11h20.33.129,Test,,2025.2.4,60.007044827070835,2026-01-30 11h20.36.719760 +1300,
fractals/fractal_complex_pair1_a_bright.png,fractals/fractal_complex_pair1_a_bright.png,fractals/fractal_complex_pair1_b_bright.png,5,10,0,0,0,0,0,0,0,,,,,,,,,,,,,,,,,46,0.7137755999999627,-0.02103998925950792,0.010359615087509155,1,0.4833464000000731,,,,,,,,,,,,,,,,,,876446,001,2026-01-30_11h20.33.129,Test,,2025.2.4,60.007044827070835,2026-01-30 11h20.36.719760 +1300,
fractals/fractal_complex_pair1_a_bright.png,fractals/fractal_complex_pair1_a_bright.png,fractals/fractal_complex_pair1_b_bright.png,5,10,0,0,0,0,0,0,0,,,,,,,,,,,,,,,,,47,0.7304170999999542,-0.02117008633083767,0.012536287307739258,1,0.4999880000000303,,,,,,,,,,,,,,,,,,876446,001,2026-01-30_11h20.33.129,Test,,2025.2.4,60.007044827070835,2026-01-30 11h20.36.719760 +1300,
fractals/fractal_complex_pair1_a_bright.png,fractals/fractal_complex_pair1_a_bright.png,fractals/fractal_complex_pair1_b_bright.png,5,10,0,0,0,0,0,0,0,,,,,,,,,,,,,,,,,48,0.7470314999999346,-0.01466809378729926,0.01694415509700775,1,0.5166006000000607,,,,,,,,,,,,,,,,,,876446,001,2026-01-30_11h20.33.129,Test,,2025.2.4,60.007044827070835,2026-01-30 11h20.36.719760 +1300,
fractals/fractal_complex_pair1_a_bright.png,fractals/fractal_complex_pair1_a_bright.png,fractals/fractal_complex_pair1_b_bright.png,5,10,0,0,0,0,0,0,0,,,,,,,,,,,,,,,,,49,0.7638016999999309,0.005745410919189453,0.030600905418395996,1,0.5333745000000363,,,,,,,,,,,,,,,,,,876446,001,2026-01-30_11h20.33.129,Test,,2025.2.4,60.007044827070835,2026-01-30 11h20.36.719760 +1300,
fractals/fractal_complex_pair1_a_bright.png,fractals/fractal_complex_pair1_a_bright.png,fractals/fractal_complex_pair1_b_bright.png,5,10,0,0,0,0,0,0,0,,,,,,,,,,,,,,,,,50,0.7803925999999137,0.007960663901435005,0.031630516052246094,1,0.5499620000000505,,,,,,,,,,,,,,,,,,876446,001,2026-01-30_11h20.33.129,Test,,2025.2.4,60.007044827070835,2026-01-30 11h20.36.719760 +1300,
fractals/fractal_complex_pair1_a_bright.png,fractals/fractal_complex_pair1_a_bright.png,fractals/fractal_complex_pair1_b_bright.png,5,10,0,0,0,0,0,0,0,,,,,,,,,,,,,,,,,51,0.7972353000000112,0.00956016116672092,0.03732702136039734,1,0.5668069000000742,,,,,,,,,,,,,,,,,,876446,001,2026-01-30_11h20.33.129,Test,,2025.2.4,60.007044827070835,2026-01-30 11h20.36.719760 +1300,
fractals/fractal_complex_pair1_a_bright.png,fractals/fractal_complex_pair1_a_bright.png,fractals/fractal_complex_pair1_b_bright.png,5,10,0,0,0,0,0,0,0,,,,,,,,,,,,,,,,,52,0.8137901000000056,0.007606453365749783,0.035452231764793396,1,0.5833617000000686,,,,,,,,,,,,,,,,,,876446,001,2026-01-30_11h20.33.129,Test,,2025.2.4,60.007044827070835,2026-01-30 11h20.36.719760 +1300,
fractals/fractal_complex_pair1_a_bright.png,fractals/fractal_complex_pair1_a_bright.png,fractals/fractal_complex_pair1_b_bright.png,5,10,0,0,0,0,0,0,0,,,,,,,,,,,,,,,,,53,0.8304251999999224,0.008081065283881294,0.034931451082229614,1,0.5999963000000434,,,,,,,,,,,,,,,,,,876446,001,2026-01-30_11h20.33.129,Test,,2025.2.4,60.007044827070835,2026-01-30 11h20.36.719760 +1300,
fractals/fractal_complex_pair1_a_bright.png,fractals/fractal_complex_pair1_a_bright.png,fractals/fractal_complex_pair1_b_bright.png,5,10,0,0,0,0,0,0,0,,,,,,,,,,,,,,,,,54,0.8470880999999508,0.008716000450981988,0.03567101061344147,1,0.6166610000000219,,,,,,,,,,,,,,,,,,876446,001,2026-01-30_11h20.33.129,Test,,2025.2.4,60.007044827070835,2026-01-30 11h20.36.719760 +1300,
fractals/fractal_complex_pair1_a_bright.png,fractals/fractal_complex_pair1_a_bright.png,fractals/fractal_complex_pair1_b_bright.png,5,10,0,0,0,0,0,0,0,,,,,,,,,,,,,,,,,55,0.8637674999999945,0.007344457838270399,0.03766973316669464,1,0.6333409000000074,,,,,,,,,,,,,,,,,,876446,001,2026-01-30_11h20.33.129,Test,,2025.2.4,60.007044827070835,2026-01-30 11h20.36.719760 +1300,
fractals/fractal_complex_pair1_a_bright.png,fractals/fractal_complex_pair1_a_bright.png,fractals/fractal_complex_pair1_b_bright.png,5,10,0,0,0,0,0,0,0,,,,,,,,,,,,,,,,,56,0.8804893999999877,0.005982134077284071,0.041087403893470764,1,0.6500644000000193,,,,,,,,,,,,,,,,,,876446,001,2026-01-30_11h20.33.129,Test,,2025.2.4,60.007044827070835,2026-01-30 11h20.36.719760 +1300,
fractals/fractal_complex_pair1_a_bright.png,fractals/fractal_complex_pair1_a_bright.png,fractals/fractal_complex_pair1_b_bright.png,5,10,0,0,0,0,0,0,0,,,,,,,,,,,,,,,,,57,0.8971027999999706,0.007728523678249783,0.036111459136009216,1,0.6666767000000391,,,,,,,,,,,,,,,,,,876446,001,2026-01-30_11h20.33.129,Test,,2025.2.4,60.007044827070835,2026-01-30 11h20.36.719760 +1300,
fractals/fractal_complex_pair1_a_bright.png,fractals/fractal_complex_pair1_a_bright.png,fractals/fractal_complex_pair1_b_bright.png,5,10,0,0,0,0,0,0,0,,,,,,,,,,,,,,,,,58,0.9139064999999391,0.009799718856811523,0.040553271770477295,1,0.6834807999999839,,,,,,,,,,,,,,,,,,876446,001,2026-01-30_11h20.33.129,Test,,2025.2.4,60.007044827070835,2026-01-30 11h20.36.719760 +1300,
fractals/fractal_complex_pair1_a_bright.png,fractals/fractal_complex_pair1_a_bright.png,fractals/fractal_complex_pair1_b_bright.png,5,10,0,0,0,0,0,0,0,,,,,,,,,,,,,,,,,59,0.9306071999999403,0.0074999332427978516,0.039793968200683594,1,0.7001860000000306,,,,,,,,,,,,,,,,,,876446,001,2026-01-30_11h20.33.129,Test,,2025.2.4,60.007044827070835,2026-01-30 11h20.36.719760 +1300,
fractals/fractal_complex_pair1_a_bright.png,fractals/fractal_complex_pair1_a_bright.png,fractals/fractal_complex_pair1_b_bright.png,5,10,0,0,0,0,0,0,0,,,,,,,,,,,,,,,,,60,0.9470484999999371,0.008868111504448785,0.040590956807136536,1,0.7166161999999758,,,,,,,,,,,,,,,,,,876446,001,2026-01-30_11h20.33.129,Test,,2025.2.4,60.007044827070835,2026-01-30 11h20.36.719760 +1300,
fractals/fractal_complex_pair1_a_bright.png,fractals/fractal_complex_pair1_a_bright.png,fractals/fractal_complex_pair1_b_bright.png,5,10,0,0,0,0,0,0,0,,,,,,,,,,,,,,,,,61,0.9637609999999768,0.007936980989244249,0.04175454378128052,1,0.733331200000066,,,,,,,,,,,,,,,,,,876446,001,2026-01-30_11h20.33.129,Test,,2025.2.4,60.007044827070835,2026-01-30 11h20.36.719760 +1300,
fractals/fractal_complex_pair1_a_bright.png,fractals/fractal_complex_pair1_a_bright.png,fractals/fractal_complex_pair1_b_bright.png,5,10,0,0,0,0,0,0,0,,,,,,,,,,,,,,,,,62,0.9804746999999452,0.007646083831787109,0.03944404423236847,1,0.7500499999999874,,,,,,,,,,,,,,,,,,876446,001,2026-01-30_11h20.33.129,Test,,2025.2.4,60.007044827070835,2026-01-30 11h20.36.719760 +1300,
fractals/fractal_complex_pair1_a_bright.png,fractals/fractal_complex_pair1_a_bright.png,fractals/fractal_complex_pair1_b_bright.png,5,10,0,0,0,0,0,0,0,,,,,,,,,,,,,,,,,63,0.9972242000000051,0.006454361809624566,0.043762654066085815,1,0.7668002000000342,,,,,,,,,,,,,,,,,,876446,001,2026-01-30_11h20.33.129,Test,,2025.2.4,60.007044827070835,2026-01-30 11h20.36.719760 +1300,
fractals/fractal_complex_pair1_a_bright.png,fractals/fractal_complex_pair1_a_bright.png,fractals/fractal_complex_pair1_b_bright.png,5,10,0,0,0,0,0,0,0,,,,,,,,,,,,,,,,,64,1.0139560000000074,0.005872805913289388,0.04354965686798096,1,0.7835297999999966,,,,,,,,,,,,,,,,,,876446,001,2026-01-30_11h20.33.129,Test,,2025.2.4,60.007044827070835,2026-01-30 11h20.36.719760 +1300,
fractals/fractal_complex_pair1_a_bright.png,fractals/fractal_complex_pair1_a_bright.png,fractals/fractal_complex_pair1_b_bright.png,5,10,0,0,0,0,0,0,0,,,,,,,,,,,,,,,,,65,1.0304340000000138,0.008259773254394531,0.04243873059749603,1,0.8000074000000268,,,,,,,,,,,,,,,,,,876446,001,2026-01-30_11h20.33.129,Test,,2025.2.4,60.007044827070835,2026-01-30 11h20.36.719760 +1300,
fractals/fractal_complex_pair1_a_bright.png,fractals/fractal_complex_pair1_a_bright.png,fractals/fractal_complex_pair1_b_bright.png,5,10,0,0,0,0,0,0,0,,,,,,,,,,,,,,,,,66,1.0473809000000074,0.0077041784922281895,0.04103440046310425,1,0.816954399999986,,,,,,,,,,,,,,,,,,876446,001,2026-01-30_11h20.33.129,Test,,2025.2.4,60.007044827070835,2026-01-30 11h20.36.719760 +1300,
fractals/fractal_complex_pair1_a_bright.png,fractals/fractal_complex_pair1_a_bright.png,fractals/fractal_complex_pair1_b_bright.png,5,10,0,0,0,0,0,0,0,,,,,,,,,,,,,,,,,67,1.0637887999999975,0.0075639088948567705,0.03945149481296539,1,0.8333632999999736,,,,,,,,,,,,,,,,,,876446,001,2026-01-30_11h20.33.129,Test,,2025.2.4,60.007044827070835,2026-01-30 11h20.36.719760 +1300,
fractals/fractal_complex_pair1_a_bright.png,fractals/fractal_complex_pair1_a_bright.png,fractals/fractal_complex_pair1_b_bright.png,5,10,0,0,0,0,0,0,0,,,,,,,,,,,,,,,,,68,1.0804630000000088,0.0056574344635009766,0.03930051624774933,1,0.8500609999999824,,,,,,,,,,,,,,,,,,876446,001,2026-01-30_11h20.33.129,Test,,2025.2.4,60.007044827070835,2026-01-30 11h20.36.719760 +1300,
fractals/fractal_complex_pair1_a_bright.png,fractals/fractal_complex_pair1_a_bright.png,fractals/fractal_complex_pair1_b_bright.png,5,10,0,0,0,0,0,0,0,,,,,,,,,,,,,,,,,69,1.097160400000007,0.005636453628540039,0.04027518630027771,1,0.8667350000000624,,,,,,,,,,,,,,,,,,876446,001,2026-01-30_11h20.33.129,Test,,2025.2.4,60.007044827070835,2026-01-30 11h20.36.719760 +1300,
fractals/fractal_complex_pair1_a_bright.png,fractals/fractal_complex_pair1_a_bright.png,fractals/fractal_complex_pair1_b_bright.png,5,10,0,0,0,0,0,0,0,,,,,,,,,,,,,,,,,70,1.1140181999999186,0.006389326519436306,0.04224593937397003,1,0.8835920999999871,,,,,,,,,,,,,,,,,,876446,001,2026-01-30_11h20.33.129,Test,,2025.2.4,60.007044827070835,2026-01-30 11h20.36.719760 +1300,
fractals/fractal_complex_pair1_a_bright.png,fractals/fractal_complex_pair1_a_bright.png,fractals/fractal_complex_pair1_b_bright.png,5,10,0,0,0,0,0,0,0,,,,,,,,,,,,,,,,,71,1.1306361999999126,0.007444249259101019,0.03970935940742493,1,0.9002116000000342,,,,,,,,,,,,,,,,,,876446,001,2026-01-30_11h20.33.129,Test,,2025.2.4,60.007044827070835,2026-01-30 11h20.36.719760 +1300,
fractals/fractal_complex_pair1_a_bright.png,fractals/fractal_complex_pair1_a_bright.png,fractals/fractal_complex_pair1_b_bright.png,5,10,0,0,0,0,0,0,0,,,,,,,,,,,,,,,,,72,1.147369299999923,0.007158915201822916,0.04038625955581665,1,0.9169450000000552,,,,,,,,,,,,,,,,,,876446,001,2026-01-30_11h20.33.129,Test,,2025.2.4,60.007044827070835,2026-01-30 11h20.36.719760 +1300,
fractals/fractal_complex_pair1_a_bright.png,fractals/fractal_complex_pair1_a_bright.png,fractals/fractal_complex_pair1_b_bright.png,5,10,0,0,0,0,0,0,0,,,,,,,,,,,,,,,,,73,1.1638584999999466,0.005024327172173394,0.03883516788482666,1,0.9334339000000682,,,,,,,,,,,,,,,,,,876446,001,2026-01-30_11h20.33.129,Test,,2025.2.4,60.007044827070835,2026-01-30 11h20.36.719760 +1300,
fractals/fractal_complex_pair1_a_bright.png,fractals/fractal_complex_pair1_a_bright.png,fractals/fractal_complex_pair1_b_bright.png,5,10,0,0,0,0,0,0,0,,,,,,,,,,,,,,,,,74,1.1806379999999308,0.005011479059855143,0.03929704427719116,1,0.9502164000000448,,,,,,,,,,,,,,,,,,876446,001,2026-01-30_11h20.33.129,Test,,2025.2.4,60.007044827070835,2026-01-30 11h20.36.719760 +1300,
fractals/fractal_complex_pair1_a_bright.png,fractals/fractal_complex_pair1_a_bright.png,fractals/fractal_complex_pair1_b_bright.png,5,10,0,0,0,0,0,0,0,,,,,,,,,,,,,,,,,75,1.1971582999999555,0.006258063846164279,0.04047156870365143,1,0.9667332000000215,,,,,,,,,,,,,,,,,,876446,001,2026-01-30_11h20.33.129,Test,,2025.2.4,60.007044827070835,2026-01-30 11h20.36.719760 +1300,
fractals/fractal_complex_pair1_a_bright.png,fractals/fractal_complex_pair1_a_bright.png,fractals/fractal_complex_pair1_b_bright.png,5,10,0,0,0,0,0,0,0,,,,,,,,,,,,,,,,,76,1.2138089999999693,0.004218313429090711,0.039378076791763306,1,0.9833833999999797,,,,,,,,,,,,,,,,,,876446,001,2026-01-30_11h20.33.129,Test,,2025.2.4,60.007044827070835,2026-01-30 11h20.36.719760 +1300,
fractals/fractal_complex_pair1_a_bright.png,fractals/fractal_complex_pair1_a_bright.png,fractals/fractal_complex_pair1_b_bright.png,5,10,0,0,0,0,0,0,0,,,,,,,,,,,,,,,,,77,1.2304624999999305,0.006303018993801541,0.0395236611366272,1,1.0000359000000572,,,,,,,,,,,,,,,,,,876446,001,2026-01-30_11h20.33.129,Test,,2025.2.4,60.007044827070835,2026-01-30 11h20.36.719760 +1300,
fractals/fractal_complex_pair1_a_bright.png,fractals/fractal_complex_pair1_a_bright.png,fractals/fractal_complex_pair1_b_bright.png,5,10,0,0,0,0,0,0,0,,,,,,,,,,,,,,,,,78,1.2470839999999725,0.004630194769965277,0.042117685079574585,1,1.0166555000000699,,,,,,,,,,,,,,,,,,876446,001,2026-01-30_11h20.33.129,Test,,2025.2.4,60.007044827070835,2026-01-30 11h20.36.719760 +1300,
fractals/fractal_complex_pair1_a_bright.png,fractals/fractal_complex_pair1_a_bright.png,fractals/fractal_complex_pair1_b_bright.png,5,10,0,0,0,0,0,0,0,,,,,,,,,,,,,,,,,79,1.2637927999999192,0.004039631949530708,0.039582327008247375,1,1.0333716999999751,,,,,,,,,,,,,,,,,,876446,001,2026-01-30_11h20.33.129,Test,,2025.2.4,60.007044827070835,2026-01-30 11h20.36.719760 +1300,
fractals/fractal_complex_pair1_a_bright.png,fractals/fractal_complex_pair1_a_bright.png,fractals/fractal_complex_pair1_b_bright.png,5,10,0,0,0,0,0,0,0,,,,,,,,,,,,,,,,,80,1.2804373999999825,0.004183318879869249,0.03989782929420471,1,1.0500124999999798,,,,,,,,,,,,,,,,,,876446,001,2026-01-30_11h20.33.129,Test,,2025.2.4,60.007044827070835,2026-01-30 11h20.36.719760 +1300,
fractals/fractal_complex_pair1_a_bright.png,fractals/fractal_complex_pair1_a_bright.png,fractals/fractal_complex_pair1_b_bright.png,5,10,0,0,0,0,0,0,0,,,,,,,,,,,,,,,,,81,1.2971564999999146,0.0039014816284179688,0.04094633460044861,1,1.0667316999999912,,,,,,,,,,,,,,,,,,876446,001,2026-01-30_11h20.33.129,Test,,2025.2.4,60.007044827070835,2026-01-30 11h20.36.719760 +1300,
fractals/fractal_complex_pair1_a_bright.png,fractals/fractal_complex_pair1_a_bright.png,fractals/fractal_complex_pair1_b_bright.png,5,10,0,0,0,0,0,0,0,,,,,,,,,,,,,,,,,82,1.3137601999999333,0.0034689373440212673,0.037722766399383545,1,1.0833309000000781,,,,,,,,,,,,,,,,,,876446,001,2026-01-30_11h20.33.129,Test,,2025.2.4,60.007044827070835,2026-01-30 11h20.36.719760 +1300,
fractals/fractal_complex_pair1_a_bright.png,fractals/fractal_complex_pair1_a_bright.png,fractals/fractal_complex_pair1_b_bright.png,5,10,0,0,0,0,0,0,0,,,,,,,,,,,,,,,,,83,1.3305135999999038,0.0035372575124104815,0.04299743473529816,1,1.1000890000000254,,,,,,,,,,,,,,,,,,876446,001,2026-01-30_11h20.33.129,Test,,2025.2.4,60.007044827070835,2026-01-30 11h20.36.719760 +1300,
fractals/fractal_complex_pair1_a_bright.png,fractals/fractal_complex_pair1_a_bright.png,fractals/fractal_complex_pair1_b_bright.png,5,10,0,0,0,0,0,0,0,,,,,,,,,,,,,,,,,84,1.34709979999991,0.0045827759636773,0.03935612738132477,1,1.116674400000079,,,,,,,,,,,,,,,,,,876446,001,2026-01-30_11h20.33.129,Test,,2025.2.4,60.007044827070835,2026-01-30 11h20.36.719760 +1300,
fractals/fractal_complex_pair1_a_bright.png,fractals/fractal_complex_pair1_a_bright.png,fractals/fractal_complex_pair1_b_bright.png,5,10,0,0,0,0,0,0,0,,,,,,,,,,,,,,,,,85,1.3638486999999486,0.003854168785942925,0.04205609858036041,1,1.1334272000000283,,,,,,,,,,,,,,,,,,876446,001,2026-01-30_11h20.33.129,Test,,2025.2.4,60.007044827070835,2026-01-30 11h20.36.719760 +1300,
fractals/fractal_complex_pair1_a_bright.png,fractals/fractal_complex_pair1_a_bright.png,fractals/fractal_complex_pair1_b_bright.png,5,10,0,0,0,0,0,0,0,,,,,,,,,,,,,,,,,86,1.3804712999999538,0.004310660892062717,0.03926387429237366,1,1.150046599999996,,,,,,,,,,,,,,,,,,876446,001,2026-01-30_11h20.33.129,Test,,2025.2.4,60.007044827070835,2026-01-30 11h20.36.719760 +1300,
fractals/fractal_complex_pair1_a_bright.png,fractals/fractal_complex_pair1_a_bright.png,fractals/fractal_complex_pair1_b_bright.png,5,10,0,0,0,0,0,0,0,,,,,,,,,,,,,,,,,87,1.3972148999999945,0.0038823551601833766,0.04304726421833038,1,1.1667924000000767,,,,,,,,,,,,,,,,,,876446,001,2026-01-30_11h20.33.129,Test,,2025.2.4,60.007044827070835,2026-01-30 11h20.36.719760 +1300,
fractals/fractal_complex_pair1_a_bright.png,fractals/fractal_complex_pair1_a_bright.png,fractals/fractal_complex_pair1_b_bright.png,5,10,0,0,0,0,0,0,0,,,,,,,,,,,,,,,,,88,1.4138202999999976,0.005065864986843533,0.04255455732345581,1,1.1833953000000292,,,,,,,,,,,,,,,,,,876446,001,2026-01-30_11h20.33.129,Test,,2025.2.4,60.007044827070835,2026-01-30 11h20.36.719760 +1300,
fractals/fractal_complex_pair1_a_bright.png,fractals/fractal_complex_pair1_a_bright.png,fractals/fractal_complex_pair1_b_bright.png,5,10,0,0,0,0,0,0,0,,,,,,,,,,,,,,,,,89,1.4304423999999472,0.0028321478101942274,0.04184480011463165,1,1.2000168000000713,,,,,,,,,,,,,,,,,,876446,001,2026-01-30_11h20.33.129,Test,,2025.2.4,60.007044827070835,2026-01-30 11h20.36.719760 +1300,
fractals/fractal_complex_pair1_a_bright.png,fractals/fractal_complex_pair1_a_bright.png,fractals/fractal_complex_pair1_b_bright.png,5,10,0,0,0,0,0,0,0,,,,,,,,,,,,,,,,,90,1.447160800000006,0.002723958757188585,0.04239740967750549,1,1.2167359000000033,,,,,,,,,,,,,,,,,,876446,001,2026-01-30_11h20.33.129,Test,,2025.2.4,60.007044827070835,2026-01-30 11h20.36.719760 +1300,
fractals/fractal_complex_pair1_a_bright.png,fractals/fractal_complex_pair1_a_bright.png,fractals/fractal_complex_pair1_b_bright.png,5,10,0,0,0,0,0,0,0,,,,,,,,,,,,,,,,,91,1.46395050000001,0.003288957807752821,0.040959298610687256,1,1.2335277000000815,,,,,,,,,,,,,,,,,,876446,001,2026-01-30_11h20.33.129,Test,,2025.2.4,60.007044827070835,2026-01-30 11h20.36.719760 +1300,
fractals/fractal_complex_pair1_a_bright.png,fractals/fractal_complex_pair1_a_bright.png,fractals/fractal_complex_pair1_b_bright.png,5,10,0,0,0,0,0,0,0,,,,,,,,,,,,,,,,,92,1.4804619999999886,0.0037487347920735674,0.042927876114845276,1,1.250038399999994,,,,,,,,,,,,,,,,,,876446,001,2026-01-30_11h20.33.129,Test,,2025.2.4,60.007044827070835,2026-01-30 11h20.36.719760 +1300,
fractals/fractal_complex_pair1_a_bright.png,fractals/fractal_complex_pair1_a_bright.png,fractals/fractal_complex_pair1_b_bright.png,5,10,0,0,0,0,0,0,0,,,,,,,,,,,,,,,,,93,1.4970738999999185,0.004229651557074653,0.043210625648498535,1,1.2666466000000582,,,,,,,,,,,,,,,,,,876446,001,2026-01-30_11h20.33.129,Test,,2025.2.4,60.007044827070835,2026-01-30 11h20.36.719760 +1300,
fractals/fractal_complex_pair1_a_bright.png,fractals/fractal_complex_pair1_a_bright.png,fractals/fractal_complex_pair1_b_bright.png,5,10,0,0,0,0,0,0,0,,,,,,,,,,,,,,,,,94,1.513776299999904,0.0025963253445095485,0.0436958372592926,1,1.2833474999999908,,,,,,,,,,,,,,,,,,876446,001,2026-01-30_11h20.33.129,Test,,2025.2.4,60.007044827070835,2026-01-30 11h20.36.719760 +1300,
fractals/fractal_complex_pair1_a_bright.png,fractals/fractal_complex_pair1_a_bright.png,fractals/fractal_complex_pair1_b_bright.png,5,10,0,0,0,0,0,0,0,,,,,,,,,,,,,,,,,95,1.5303597999999283,0.003996372222900391,0.04405471682548523,1,1.2999280000000226,,,,,,,,,,,,,,,,,,876446,001,2026-01-30_11h20.33.129,Test,,2025.2.4,60.007044827070835,2026-01-30 11h20.36.719760 +1300,
fractals/fractal_complex_pair1_a_bright.png,fractals/fractal_complex_pair1_a_bright.png,fractals/fractal_complex_pair1_b_bright.png,5,10,0,0,0,0,0,0,0,,,,,,,,,,,,,,,,,96,1.5470803999999134,0.001135428746541341,0.04515641927719116,1,1.3166545999999926,,,,,,,,,,,,,,,,,,876446,001,2026-01-30_11h20.33.129,Test,,2025.2.4,60.007044827070835,2026-01-30 11h20.36.719760 +1300,
fractals/fractal_complex_pair1_a_bright.png,fractals/fractal_complex_pair1_a_bright.png,fractals/fractal_complex_pair1_b_bright.png,5,10,0,0,0,0,0,0,0,,,,,,,,,,,,,,,,,97,1.5637746999999536,0.0017628934648301865,0.041567713022232056,1,1.333349300000009,,,,,,,,,,,,,,,,,,876446,001,2026-01-30_11h20.33.129,Test,,2025.2.4,60.007044827070835,2026-01-30 11h20.36.719760 +1300,
fractals/fractal_complex_pair1_a_bright.png,fractals/fractal_complex_pair1_a_bright.png,fractals/fractal_complex_pair1_b_bright.png,5,10,0,0,0,0,0,0,0,,,,,,,,,,,,,,,,,98,1.5804515999999467,0.0027054415808783635,0.04427899420261383,1,1.3500252000000046,,,,,,,,,,,,,,,,,,876446,001,2026-01-30_11h20.33.129,Test,,2025.2.4,60.007044827070835,2026-01-30 11h20.36.719760 +1300,
fractals/fractal_complex_pair1_a_bright.png,fractals/fractal_complex_pair1_a_bright.png,fractals/fractal_complex_pair1_b_bright.png,5,10,0,0,0,0,0,0,0,,,,,,,,,,,,,,,,,99,1.5973138999999037,0.0005841785007052951,0.04356418550014496,1,1.3668873000000303,,,,,,,,,,,,,,,,,,876446,001,2026-01-30_11h20.33.129,Test,,2025.2.4,60.007044827070835,2026-01-30 11h20.36.719760 +1300,
fractals/fractal_complex_pair1_a_bright.png,fractals/fractal_complex_pair1_a_bright.png,fractals/fractal_complex_pair1_b_bright.png,5,10,0,0,0,0,0,0,0,,,,,,,,,,,,,,,,,100,1.613792099999955,0.00036271413167317707,0.04352907836437225,1,1.3833656000000474,,,,,,,,,,,,,,,,,,876446,001,2026-01-30_11h20.33.129,Test,,2025.2.4,60.007044827070835,2026-01-30 11h20.36.719760 +1300,
fractals/fractal_complex_pair1_a_bright.png,fractals/fractal_complex_pair1_a_bright.png,fractals/fractal_complex_pair1_b_bright.png,5,10,0,0,0,0,0,0,0,,,,,,,,,,,,,,,,,101,1.630497699999978,0.00219477547539605,0.04586315155029297,1,1.4000720000000229,,,,,,,,,,,,,,,,,,876446,001,2026-01-30_11h20.33.129,Test,,2025.2.4,60.007044827070835,2026-01-30 11h20.36.719760 +1300,
fractals/fractal_complex_pair1_a_bright.png,fractals/fractal_complex_pair1_a_bright.png,fractals/fractal_complex_pair1_b_bright.png,5,10,0,0,0,0,0,0,0,,,,,,,,,,,,,,,,,102,1.6471533999999792,0.000755416022406684,0.04149681329727173,1,1.416729900000064,,,,,,,,,,,,,,,,,,876446,001,2026-01-30_11h20.33.129,Test,,2025.2.4,60.007044827070835,2026-01-30 11h20.36.719760 +1300,
fractals/fractal_complex_pair1_a_bright.png,fractals/fractal_complex_pair1_a_bright.png,fractals/fractal_complex_pair1_b_bright.png,5,10,0,0,0,0,0,0,0,,,,,,,,,,,,,,,,,103,1.6637994000000162,0.0020140012105305987,0.04244551062583923,1,1.433371700000066,,,,,,,,,,,,,,,,,,876446,001,2026-01-30_11h20.33.129,Test,,2025.2.4,60.007044827070835,2026-01-30 11h20.36.719760 +1300,
fractals/fractal_complex_pair1_a_bright.png,fractals/fractal_complex_pair1_a_bright.png,fractals/fractal_complex_pair1_b_bright.png,5,10,0,0,0,0,0,0,0,,,,,,,,,,,,,,,,,104,1.680499399999917,0.0014466179741753472,0.04326722025871277,1,1.450074299999983,,,,,,,,,,,,,,,,,,876446,001,2026-01-30_11h20.33.129,Test,,2025.2.4,60.007044827070835,2026-01-30 11h20.36.719760 +1300,
fractals/fractal_complex_pair1_a_bright.png,fractals/fractal_complex_pair1_a_bright.png,fractals/fractal_complex_pair1_b_bright.png,5,10,0,0,0,0,0,0,0,,,,,,,,,,,,,,,,,105,1.6970992999999908,0.0012969440884060329,0.04340420663356781,1,1.4666718000000856,,,,,,,,,,,,,,,,,,876446,001,2026-01-30_11h20.33.129,Test,,2025.2.4,60.007044827070835,2026-01-30 11h20.36.719760 +1300,
fractals/fractal_complex_pair1_a_bright.png,fractals/fractal_complex_pair1_a_bright.png,fractals/fractal_complex_pair1_b_bright.png,5,10,0,0,0,0,0,0,0,,,,,,,,,,,,,,,,,106,1.7140375999999833,-9.42548116048177e-05,0.04417778551578522,1,1.4836103000000094,,,,,,,,,,,,,,,,,,876446,001,2026-01-30_11h20.33.129,Test,,2025.2.4,60.007044827070835,2026-01-30 11h20.36.719760 +1300,
fractals/fractal_complex_pair1_a_bright.png,fractals/fractal_complex_pair1_a_bright.png,fractals/fractal_complex_pair1_b_bright.png,5,10,0,0,0,0,0,0,0,,,,,,,,,,,,,,,,,107,1.7304732999999715,-0.002083407508002387,0.042983487248420715,1,1.5000514000000749,,,,,,,,,,,,,,,,,,876446,001,2026-01-30_11h20.33.129,Test,,2025.2.4,60.007044827070835,2026-01-30 11h20.36.719760 +1300,
fractals/fractal_complex_pair1_a_bright.png,fractals/fractal_complex_pair1_a_bright.png,fractals/fractal_complex_pair1_b_bright.png,5,10,0,0,0,0,0,0,0,,,,,,,,,,,,,,,,,108,1.7470936999999367,-0.0018825795915391708,0.042655304074287415,1,1.516670700000077,,,,,,,,,,,,,,,,,,876446,001,2026-01-30_11h20.33.129,Test,,2025.2.4,60.007044827070835,2026-01-30 11h20.36.719760 +1300,
fractals/fractal_complex_pair1_a_bright.png,fractals/fractal_complex_pair1_a_bright.png,fractals/fractal_complex_pair1_b_bright.png,5,10,0,0,0,0,0,0,0,,,,,,,,,,,,,,,,,109,1.763904299999922,-0.0020467440287272134,0.04334290325641632,1,1.5334798999999748,,,,,,,,,,,,,,,,,,876446,001,2026-01-30_11h20.33.129,Test,,2025.2.4,60.007044827070835,2026-01-30 11h20.36.719760 +1300,
fractals/fractal_complex_pair1_a_bright.png,fractals/fractal_complex_pair1_a_bright.png,fractals/fractal_complex_pair1_b_bright.png,5,10,0,0,0,0,0,0,0,,,,,,,,,,,,,,,,,110,1.7804954999999154,-0.001350720723470052,0.04256431758403778,1,1.5500729999999976,,,,,,,,,,,,,,,,,,876446,001,2026-01-30_11h20.33.129,Test,,2025.2.4,60.007044827070835,2026-01-30 11h20.36.719760 +1300,
fractals/fractal_complex_pair1_a_bright.png,fractals/fractal_complex_pair1_a_bright.png,fractals/fractal_complex_pair1_b_bright.png,5,10,0,0,0,0,0,0,0,,,,,,,,,,,,,,,,,111,1.7971478999999135,-0.0020923084682888454,0.04226118326187134,1,1.5667259000000513,,,,,,,,,,,,,,,,,,876446,001,2026-01-30_11h20.33.129,Test,,2025.2.4,60.007044827070835,2026-01-30 11h20.36.719760 +1300,
fractals/fractal_complex_pair1_a_bright.png,fractals/fractal_complex_pair1_a_bright.png,fractals/fractal_complex_pair1_b_bright.png,5,10,0,0,0,0,0,0,0,,,,,,,,,,,,,,,,,112,1.813861799999927,-0.0026421546936035156,0.03979445993900299,1,1.5834366000000273,,,,,,,,,,,,,,,,,,876446,001,2026-01-30_11h20.33.129,Test,,2025.2.4,60.007044827070835,2026-01-30 11h20.36.719760 +1300,
fractals/fractal_complex_pair1_a_bright.png,fractals/fractal_complex_pair1_a_bright.png,fractals/fractal_complex_pair1_b_bright.png,5,10,0,0,0,0,0,0,0,,,,,,,,,,,,,,,,,113,1.8304000999999062,-0.004141198264227973,0.04071468114852905,1,1.5999664000000848,,,,,,,,,,,,,,,,,,876446,001,2026-01-30_11h20.33.129,Test,,2025.2.4,60.007044827070835,2026-01-30 11h20.36.719760 +1300,
fractals/fractal_complex_pair1_a_bright.png,fractals/fractal_complex_pair1_a_bright.png,fractals/fractal_complex_pair1_b_bright.png,5,10,0,0,0,0,0,0,0,,,,,,,,,,,,,,,,,114,1.8470708999999488,-0.00393321779039171,0.039930328726768494,1,1.616641300000083,,,,,,,,,,,,,,,,,,876446,001,2026-01-30_11h20.33.129,Test,,2025.2.4,60.007044827070835,2026-01-30 11h20.36.719760 +1300,
fractals/fractal_complex_pair1_a_bright.png,fractals/fractal_complex_pair1_a_bright.png,fractals/fractal_complex_pair1_b_bright.png,5,10,0,0,0,0,0,0,0,,,,,,,,,,,,,,,,,115,1.8637698999999657,-0.0037407875061035156,0.041202664375305176,1,1.6333407000000761,,,,,,,,,,,,,,,,,,876446,001,2026-01-30_11h20.33.129,Test,,2025.2.4,60.007044827070835,2026-01-30 11h20.36.719760 +1300,
fractals/fractal_complex_pair1_a_bright.png,fractals/fractal_complex_pair1_a_bright.png,fractals/fractal_complex_pair1_b_bright.png,5,10,0,0,0,0,0,0,0,,,,,,,,,,,,,,,,,116,1.8804345999999441,-0.004349019792344835,0.0423150509595871,1,1.6500038000000359,,,,,,,,,,,,,,,,,,876446,001,2026-01-30_11h20.33.129,Test,,2025.2.4,60.007044827070835,2026-01-30 11h20.36.719760 +1300,
fractals/fractal_complex_pair1_a_bright.png,fractals/fractal_complex_pair1_a_bright.png,fractals/fractal_complex_pair1_b_bright.png,5,10,0,0,0,0,0,0,0,,,,,,,,,,,,,,,,,117,1.8970818999999892,-0.004761616388956705,0.040907323360443115,1,1.666650699999991,,,,,,,,,,,,,,,,,,876446,001,2026-01-30_11h20.33.129,Test,,2025.2.4,60.007044827070835,2026-01-30 11h20.36.719760 +1300,
fractals/fractal_complex_pair1_a_bright.png,fractals/fractal_complex_pair1_a_bright.png,fractals/fractal_complex_pair1_b_bright.png,5,10,0,0,0,0,0,0,0,,,,,,,,,,,,,,,,,118,1.9137333999999555,-0.004946708679199219,0.04091963171958923,1,1.6833046000000422,,,,,,,,,,,,,,,,,,876446,001,2026-01-30_11h20.33.129,Test,,2025.2.4,60.007044827070835,2026-01-30 11h20.36.719760 +1300,
fractals/fractal_complex_pair1_a_bright.png,fractals/fractal_complex_pair1_a_bright.png,fractals/fractal_complex_pair1_b_bright.png,5,10,0,0,0,0,0,0,0,,,,,,,,,,,,,,,,,119,1.930454999999938,-0.005282878875732422,0.0414503812789917,1,1.7000275000000329,,,,,,,,,,,,,,,,,,876446,001,2026-01-30_11h20.33.129,Test,,2025.2.4,60.007044827070835,2026-01-30 11h20.36.719760 +1300,
fractals/fractal_complex_pair1_a_bright.png,fractals/fractal_complex_pair1_a_bright.png,fractals/fractal_complex_pair1_b_bright.png,5,10,0,0,0,0,0,0,0,,,,,,,,,,,,,,,,,120,1.9471108999999842,-0.005084541108873155,0.041551411151885986,1,1.7166856000000053,,,,,,,,,,,,,,,,,,876446,001,2026-01-30_11h20.33.129,Test,,2025.2.4,60.007044827070835,2026-01-30 11h20.36.719760 +1300,
fractals/fractal_complex_pair1_a_bright.png,fractals/fractal_complex_pair1_a_bright.png,fractals/fractal_complex_pair1_b_bright.png,5,10,0,0,0,0,0,0,0,,,,,,,,,,,,,,,,,121,1.963793399999986,-0.0070124202304416225,0.04231332242488861,1,1.7333671000000095,,,,,,,,,,,,,,,,,,876446,001,2026-01-30_11h20.33.129,Test,,2025.2.4,60.007044827070835,2026-01-30 11h20.36.719760 +1300,
fractals/fractal_complex_pair1_a_bright.png,fractals/fractal_complex_pair1_a_bright.png,fractals/fractal_complex_pair1_b_bright.png,5,10,0,0,0,0,0,0,0,,,,,,,,,,,,,,,,,122,1.9804382999999461,-0.007463190290662977,0.03968116641044617,1,1.7500115000000278,,,,,,,,,,,,,,,,,,876446,001,2026-01-30_11h20.33.129,Test,,2025.2.4,60.007044827070835,2026-01-30 11h20.36.719760 +1300,
fractals/fractal_complex_pair1_a_bright.png,fractals/fractal_complex_pair1_a_bright.png,fractals/fractal_complex_pair1_b_bright.png,5,10,0,0,0,0,0,0,0,,,,,,,,,,,,,,,,,123,1.9970853999999463,-0.007360193464491102,0.0402119904756546,1,1.7666606999999885,,,,,,,,,,,,,,,,,,876446,001,2026-01-30_11h20.33.129,Test,,2025.2.4,60.007044827070835,2026-01-30 11h20.36.719760 +1300,
fractals/fractal_complex_pair1_a_bright.png,fractals/fractal_complex_pair1_a_bright.png,fractals/fractal_complex_pair1_b_bright.png,5,10,0,0,0,0,0,0,0,,,,,,,,,,,,,,,,,124,2.0141234000000168,-0.006813367207845052,0.03895244002342224,1,1.7837023000000727,,,,,,,,,,,,,,,,,,876446,001,2026-01-30_11h20.33.129,Test,,2025.2.4,60.007044827070835,2026-01-30 11h20.36.719760 +1300,
fractals/fractal_complex_pair1_a_bright.png,fractals/fractal_complex_pair1_a_bright.png,fractals/fractal_complex_pair1_b_bright.png,5,10,0,0,0,0,0,0,0,,,,,,,,,,,,,,,,,125,2.030680899999993,-0.007484356562296549,0.03835207223892212,1,1.8002568000000565,,,,,,,,,,,,,,,,,,876446,001,2026-01-30_11h20.33.129,Test,,2025.2.4,60.007044827070835,2026-01-30 11h20.36.719760 +1300,
fractals/fractal_complex_pair1_a_bright.png,fractals/fractal_complex_pair1_a_bright.png,fractals/fractal_complex_pair1_b_bright.png,5,10,0,0,0,0,0,0,0,,,,,,,,,,,,,,,,,126,2.0470763999999235,-0.007908503214518229,0.03864915668964386,1,1.8166455000000497,,,,,,,,,,,,,,,,,,876446,001,2026-01-30_11h20.33.129,Test,,2025.2.4,60.007044827070835,2026-01-30 11h20.36.719760 +1300,
fractals/fractal_complex_pair1_a_bright.png,fractals/fractal_complex_pair1_a_bright.png,fractals/fractal_complex_pair1_b_bright.png,5,10,0,0,0,0,0,0,0,,,,,,,,,,,,,,,,,127,2.063745400000016,-0.008951213624742296,0.03892926871776581,1,1.8333171000000448,,,,,,,,,,,,,,,,,,876446,001,2026-01-30_11h20.33.129,Test,,2025.2.4,60.007044827070835,2026-01-30 11h20.36.719760 +1300,
fractals/fractal_complex_pair1_a_bright.png,fractals/fractal_complex_pair1_a_bright.png,fractals/fractal_complex_pair1_b_bright.png,5,10,0,0,0,0,0,0,0,,,,,,,,,,,,,,,,,128,2.0805573000000095,-0.009145365820990669,0.0391106903553009,1,1.850130799999988,,,,,,,,,,,,,,,,,,876446,001,2026-01-30_11h20.33.129,Test,,2025.2.4,60.007044827070835,2026-01-30 11h20.36.719760 +1300,
fractals/fractal_complex_pair1_a_bright.png,fractals/fractal_complex_pair1_a_bright.png,fractals/fractal_complex_pair1_b_bright.png,5,10,0,0,0,0,0,0,0,,,,,,,,,,,,,,,,,129,2.0970823999999766,-0.008986102210150825,0.038902416825294495,1,1.8666577999999845,,,,,,,,,,,,,,,,,,876446,001,2026-01-30_11h20.33.129,Test,,2025.2.4,60.007044827070835,2026-01-30 11h20.36.719760 +1300,
fractals/fractal_complex_pair1_a_bright.png,fractals/fractal_complex_pair1_a_bright.png,fractals/fractal_complex_pair1_b_bright.png,5,10,0,0,0,0,0,0,0,,,,,,,,,,,,,,,,,130,2.1138852999999926,-0.008862813313802082,0.03975571691989899,1,1.88346039999999,,,,,,,,,,,,,,,,,,876446,001,2026-01-30_11h20.33.129,Test,,2025.2.4,60.007044827070835,2026-01-30 11h20.36.719760 +1300,
fractals/fractal_complex_pair1_a_bright.png,fractals/fractal_complex_pair1_a_bright.png,fractals/fractal_complex_pair1_b_bright.png,5,10,0,0,0,0,0,0,0,,,,,,,,,,,,,,,,,131,2.130437999999913,-0.009419759114583332,0.03962080180644989,1,1.900012199999992,,,,,,,,,,,,,,,,,,876446,001,2026-01-30_11h20.33.129,Test,,2025.2.4,60.007044827070835,2026-01-30 11h20.36.719760 +1300,
fractals/fractal_complex_pair1_a_bright.png,fractals/fractal_complex_pair1_a_bright.png,fractals/fractal_complex_pair1_b_bright.png,5,10,0,0,0,0,0,0,0,,,,,,,,,,,,,,,,,132,2.147207099999946,-0.01095792982313368,0.03892923891544342,1,1.9167816000000357,,,,,,,,,,,,,,,,,,876446,001,2026-01-30_11h20.33.129,Test,,2025.2.4,60.007044827070835,2026-01-30 11h20.36.719760 +1300,
fractals/fractal_complex_pair1_a_bright.png,fractals/fractal_complex_pair1_a_bright.png,fractals/fractal_complex_pair1_b_bright.png,5,10,0,0,0,0,0,0,0,,,,,,,,,,,,,,,,,133,2.1638883999999052,-0.010159174601236979,0.041038841009140015,1,1.9334628000000293,,,,,,,,,,,,,,,,,,876446,001,2026-01-30_11h20.33.129,Test,,2025.2.4,60.007044827070835,2026-01-30 11h20.36.719760 +1300,
fractals/fractal_complex_pair1_a_bright.png,fractals/fractal_complex_pair1_a_bright.png,fractals/fractal_complex_pair1_b_bright.png,5,10,0,0,0,0,0,0,0,,,,,,,,,,,,,,,,,134,2.180513299999916,-0.010712464650472004,0.037722766399383545,1,1.950088600000072,,,,,,,,,,,,,,,,,,876446,001,2026-01-30_11h20.33.129,Test,,2025.2.4,60.007044827070835,2026-01-30 11h20.36.719760 +1300,
fractals/fractal_complex_pair1_a_bright.png,fractals/fractal_complex_pair1_a_bright.png,fractals/fractal_complex_pair1_b_bright.png,5,10,0,0,0,0,0,0,0,,,,,,,,,,,,,,,,,135,2.1971368999999186,-0.010961426628960503,0.04068523645401001,1,1.9667109000000664,,,,,,,,,,,,,,,,,,876446,001,2026-01-30_11h20.33.129,Test,,2025.2.4,60.007044827070835,2026-01-30 11h20.36.719760 +1300,
fractals/fractal_complex_pair1_a_bright.png,fractals/fractal_complex_pair1_a_bright.png,fractals/fractal_complex_pair1_b_bright.png,5,10,0,0,0,0,0,0,0,,,,,,,,,,,,,,,,,136,2.2137700999999197,-0.010624753104315864,0.03780212998390198,1,1.9833454000000756,,,,,,,,,,,,,,,,,,876446,001,2026-01-30_11h20.33.129,Test,,2025.2.4,60.007044827070835,2026-01-30 11h20.36.719760 +1300,
fractals/fractal_complex_pair1_a_bright.png,fractals/fractal_complex_pair1_a_bright.png,fractals/fractal_complex_pair1_b_bright.png,5,10,0,0,0,0,0,0,0,,,,,,,,,,,,,,,,,137,2.2304911999999604,-0.009233898586697048,0.037420034408569336,1,2.0000667000000476,,,,,,,,,,,,,,,,,,876446,001,2026-01-30_11h20.33.129,Test,,2025.2.4,60.007044827070835,2026-01-30 11h20.36.719760 +1300,
fractals/fractal_complex_pair1_a_bright.png,fractals/fractal_complex_pair1_a_bright.png,fractals/fractal_complex_pair1_b_bright.png,5,10,0,0,0,0,0,0,0,,,,,,,,,,,,,,,,,138,2.247273899999982,-0.009660800298055012,0.03751751780509949,1,2.016849400000069,,,,,,,,,,,,,,,,,,876446,001,2026-01-30_11h20.33.129,Test,,2025.2.4,60.007044827070835,2026-01-30 11h20.36.719760 +1300,
fractals/fractal_complex_pair1_a_bright.png,fractals/fractal_complex_pair1_a_bright.png,fractals/fractal_complex_pair1_b_bright.png,5,10,0,0,0,0,0,0,0,,,,,,,,,,,,,,,,,139,2.2638301999999157,-0.010125107235378688,0.03795996308326721,1,2.0334049000000505,,,,,,,,,,,,,,,,,,876446,001,2026-01-30_11h20.33.129,Test,,2025.2.4,60.007044827070835,2026-01-30 11h20.36.719760 +1300,
fractals/fractal_complex_pair1_a_bright.png,fractals/fractal_complex_pair1_a_bright.png,fractals/fractal_complex_pair1_b_bright.png,5,10,0,0,0,0,0,0,0,,,,,,,,,,,,,,,,,140,2.2806717999999364,-0.011415269639756944,0.03668391704559326,1,2.0502460000000156,,,,,,,,,,,,,,,,,,876446,001,2026-01-30_11h20.33.129,Test,,2025.2.4,60.007044827070835,2026-01-30 11h20.36.719760 +1300,
fractals/fractal_complex_pair1_a_bright.png,fractals/fractal_complex_pair1_a_bright.png,fractals/fractal_complex_pair1_b_bright.png,5,10,0,0,0,0,0,0,0,,,,,,,,,,,,,,,,,141,2.2972836000000143,-0.011563963360256618,0.03670737147331238,1,2.066861200000062,,,,,,,,,,,,,,,,,,876446,001,2026-01-30_11h20.33.129,Test,,2025.2.4,60.007044827070835,2026-01-30 11h20.36.719760 +1300,
fractals/fractal_complex_pair1_a_bright.png,fractals/fractal_complex_pair1_a_bright.png,fractals/fractal_complex_pair1_b_bright.png,5,10,0,0,0,0,0,0,0,,,,,,,,,,,,,,,,,142,2.313803000000007,-0.010267840491400825,0.03680074214935303,1,2.083379100000002,,,,,,,,,,,,,,,,,,876446,001,2026-01-30_11h20.33.129,Test,,2025.2.4,60.007044827070835,2026-01-30 11h20.36.719760 +1300,
fractals/fractal_complex_pair1_a_bright.png,fractals/fractal_complex_pair1_a_bright.png,fractals/fractal_complex_pair1_b_bright.png,5,10,0,0,0,0,0,0,0,,,,,,,,,,,,,,,,,143,2.3305384999999887,-0.011507219738430446,0.035416170954704285,1,2.1001145999999835,,,,,,,,,,,,,,,,,,876446,001,2026-01-30_11h20.33.129,Test,,2025.2.4,60.007044827070835,2026-01-30 11h20.36.719760 +1300,
fractals/fractal_complex_pair1_a_bright.png,fractals/fractal_complex_pair1_a_bright.png,fractals/fractal_complex_pair1_b_bright.png,5,10,0,0,0,0,0,0,0,,,,,,,,,,,,,,,,,144,2.3471230000000105,-0.011285172568427192,0.03642413020133972,1,2.1167001000000027,,,,,,,,,,,,,,,,,,876446,001,2026-01-30_11h20.33.129,Test,,2025.2.4,60.007044827070835,2026-01-30 11h20.36.719760 +1300,
fractals/fractal_complex_pair1_a_bright.png,fractals/fractal_complex_pair1_a_bright.png,fractals/fractal_complex_pair1_b_bright.png,5,10,0,0,0,0,0,0,0,,,,,,,,,,,,,,,,,145,2.3638052999999672,-0.01282011138068305,0.03456345200538635,1,2.1333801000000676,,,,,,,,,,,,,,,,,,876446,001,2026-01-30_11h20.33.129,Test,,2025.2.4,60.007044827070835,2026-01-30 11h20.36.719760 +1300,
fractals/fractal_complex_pair1_a_bright.png,fractals/fractal_complex_pair1_a_bright.png,fractals/fractal_complex_pair1_b_bright.png,5,10,0,0,0,0,0,0,0,,,,,,,,,,,,,,,,,146,2.380597699999953,-0.011092768775092231,0.0365302711725235,1,2.1501719999999978,,,,,,,,,,,,,,,,,,876446,001,2026-01-30_11h20.33.129,Test,,2025.2.4,60.007044827070835,2026-01-30 11h20.36.719760 +1300,
fractals/fractal_complex_pair1_a_bright.png,fractals/fractal_complex_pair1_a_bright.png,fractals/fractal_complex_pair1_b_bright.png,5,10,0,0,0,0,0,0,0,,,,,,,,,,,,,,,,,147,2.397227799999996,-0.010645707448323567,0.035567522048950195,1,2.16680359999998,,,,,,,,,,,,,,,,,,876446,001,2026-01-30_11h20.33.129,Test,,2025.2.4,60.007044827070835,2026-01-30 11h20.36.719760 +1300,
fractals/fractal_complex_pair1_a_bright.png,fractals/fractal_complex_pair1_a_bright.png,fractals/fractal_complex_pair1_b_bright.png,5,10,0,0,0,0,0,0,0,,,,,,,,,,,,,,,,,148,2.4137243000000126,-0.010843144522772895,0.03469917178153992,1,2.1832933000000594,,,,,,,,,,,,,,,,,,876446,001,2026-01-30_11h20.33.129,Test,,2025.2.4,60.007044827070835,2026-01-30 11h20.36.719760 +1300,
fractals/fractal_complex_pair1_a_bright.png,fractals/fractal_complex_pair1_a_bright.png,fractals/fractal_complex_pair1_b_bright.png,5,10,0,0,0,0,0,0,0,,,,,,,,,,,,,,,,,149,2.43052119999993,-0.009569724400838215,0.03807860612869263,1,2.200090600000067,,,,,,,,,,,,,,,,,,876446,001,2026-01-30_11h20.33.129,Test,,2025.2.4,60.007044827070835,2026-01-30 11h20.36.719760 +1300,
fractals/fractal_complex_pair1_a_bright.png,fractals/fractal_complex_pair1_a_bright.png,fractals/fractal_complex_pair1_b_bright.png,5,10,0,0,0,0,0,0,0,,,,,,,,,,,,,,,,,150,2.4471968999999945,-0.008888085683186848,0.035944655537605286,1,2.2167670000000044,,,,,,,,,,,,,,,,,,876446,001,2026-01-30_11h20.33.129,Test,,2025.2.4,60.007044827070835,2026-01-30 11h20.36.719760 +1300,
fractals/fractal_complex_pair1_a_bright.png,fractals/fractal_complex_pair1_a_bright.png,fractals/fractal_complex_pair1_b_bright.png,5,10,0,0,0,0,0,0,0,,,,,,,,,,,,,,,,,151,2.463752099999965,-0.011924478742811414,0.03319358825683594,1,2.2333242000000837,,,,,,,,,,,,,,,,,,876446,001,2026-01-30_11h20.33.129,Test,,2025.2.4,60.007044827070835,2026-01-30 11h20.36.719760 +1300,
fractals/fractal_complex_pair1_a_bright.png,fractals/fractal_complex_pair1_a_bright.png,fractals/fractal_complex_pair1_b_bright.png,5,10,0,0,0,0,0,0,0,,,,,,,,,,,,,,,,,152,2.4804703999999447,-0.011121537950303819,0.03472183644771576,1,2.2500442000000476,,,,,,,,,,,,,,,,,,876446,001,2026-01-30_11h20.33.129,Test,,2025.2.4,60.007044827070835,2026-01-30 11h20.36.719760 +1300,
fractals/fractal_complex_pair1_a_bright.png,fractals/fractal_complex_pair1_a_bright.png,fractals/fractal_complex_pair1_b_bright.png,5,10,0,0,0,0,0,0,0,,,,,,,,,,,,,,,,,153,2.4970943999999236,-0.01147045029534234,0.035371869802474976,1,2.266669800000045,,,,,,,,,,,,,,,,,,876446,001,2026-01-30_11h20.33.129,Test,,2025.2.4,60.007044827070835,2026-01-30 11h20.36.719760 +1300,
fractals/fractal_complex_pair1_a_bright.png,fractals/fractal_complex_pair1_a_bright.png,fractals/fractal_complex_pair1_b_bright.png,5,10,0,0,0,0,0,0,0,,,,,,,,,,,,,,,,,154,2.513835399999948,-0.01197581821017795,0.03441628813743591,1,2.2834133000000065,,,,,,,,,,,,,,,,,,876446,001,2026-01-30_11h20.33.129,Test,,2025.2.4,60.007044827070835,2026-01-30 11h20.36.719760 +1300,
fractals/fractal_complex_pair1_a_bright.png,fractals/fractal_complex_pair1_a_bright.png,fractals/fractal_complex_pair1_b_bright.png,5,10,0,0,0,0,0,0,0,,,,,,,,,,,,,,,,,155,2.530575899999917,-0.013409455617268879,0.03400585055351257,1,2.300148300000046,,,,,,,,,,,,,,,,,,876446,001,2026-01-30_11h20.33.129,Test,,2025.2.4,60.007044827070835,2026-01-30 11h20.36.719760 +1300,
fractals/fractal_complex_pair1_a_bright.png,fractals/fractal_complex_pair1_a_bright.png,fractals/fractal_complex_pair1_b_bright.png,5,10,0,0,0,0,0,0,0,,,,,,,,,,,,,,,,,156,2.5471438999999236,-0.013341400358412,0.03565722703933716,1,2.3167154999999866,,,,,,,,,,,,,,,,,,876446,001,2026-01-30_11h20.33.129,Test,,2025.2.4,60.007044827070835,2026-01-30 11h20.36.719760 +1300,
fractals/fractal_complex_pair1_a_bright.png,fractals/fractal_complex_pair1_a_bright.png,fractals/fractal_complex_pair1_b_bright.png,5,10,0,0,0,0,0,0,0,,,,,,,,,,,,,,,,,157,2.563867500000015,-0.013190693325466579,0.0343560129404068,1,2.3334447000000864,,,,,,,,,,,,,,,,,,876446,001,2026-01-30_11h20.33.129,Test,,2025.2.4,60.007044827070835,2026-01-30 11h20.36.719760 +1300,
fractals/fractal_complex_pair1_a_bright.png,fractals/fractal_complex_pair1_a_bright.png,fractals/fractal_complex_pair1_b_bright.png,5,10,0,0,0,0,0,0,0,,,,,,,,,,,,,,,,,158,2.580421099999967,-0.012267642550998263,0.0355246365070343,1,2.3499952000000803,,,,,,,,,,,,,,,,,,876446,001,2026-01-30_11h20.33.129,Test,,2025.2.4,60.007044827070835,2026-01-30 11h20.36.719760 +1300,
fractals/fractal_complex_pair1_a_bright.png,fractals/fractal_complex_pair1_a_bright.png,fractals/fractal_complex_pair1_b_bright.png,5,10,0,0,0,0,0,0,0,,,,,,,,,,,,,,,,,159,2.5971556999999166,-0.010674105750189887,0.036228716373443604,1,2.3667323000000806,,,,,,,,,,,,,,,,,,876446,001,2026-01-30_11h20.33.129,Test,,2025.2.4,60.007044827070835,2026-01-30 11h20.36.719760 +1300,
fractals/fractal_complex_pair1_a_bright.png,fractals/fractal_complex_pair1_a_bright.png,fractals/fractal_complex_pair1_b_bright.png,5,10,0,0,0,0,0,0,0,,,,,,,,,,,,,,,,,160,2.613823299999922,-0.011627515157063801,0.03441573679447174,1,2.383399499999996,,,,,,,,,,,,,,,,,,876446,001,2026-01-30_11h20.33.129,Test,,2025.2.4,60.007044827070835,2026-01-30 11h20.36.719760 +1300,
fractals/fractal_complex_pair1_a_bright.png,fractals/fractal_complex_pair1_a_bright.png,fractals/fractal_complex_pair1_b_bright.png,5,10,0,0,0,0,0,0,0,,,,,,,,,,,,,,,,,161,2.6304348999999547,-0.011282920837402344,0.038297951221466064,1,2.40000950000001,,,,,,,,,,,,,,,,,,876446,001,2026-01-30_11h20.33.129,Test,,2025.2.4,60.007044827070835,2026-01-30 11h20.36.719760 +1300,
fractals/fractal_complex_pair1_a_bright.png,fractals/fractal_complex_pair1_a_bright.png,fractals/fractal_complex_pair1_b_bright.png,5,10,0,0,0,0,0,0,0,,,,,,,,,,,,,,,,,162,2.647150199999942,-0.005227989620632595,0.044336482882499695,1,2.4167244999999866,,,,,,,,,,,,,,,,,,876446,001,2026-01-30_11h20.33.129,Test,,2025.2.4,60.007044827070835,2026-01-30 11h20.36.719760 +1300,
fractals/fractal_complex_pair1_a_bright.png,fractals/fractal_complex_pair1_a_bright.png,fractals/fractal_complex_pair1_b_bright.png,5,10,0,0,0,0,0,0,0,,,,,,,,,,,,,,,,,163,2.663859499999944,-0.006988843282063802,0.04411846399307251,1,2.4334336000000576,,,,,,,,,,,,,,,,,,876446,001,2026-01-30_11h20.33.129,Test,,2025.2.4,60.007044827070835,2026-01-30 11h20.36.719760 +1300,
fractals/fractal_complex_pair1_a_bright.png,fractals/fractal_complex_pair1_a_bright.png,fractals/fractal_complex_pair1_b_bright.png,5,10,0,0,0,0,0,0,0,,,,,,,,,,,,,,,,,164,2.6804850999999417,-0.006603346930609808,0.04387208819389343,1,2.450062800000069,,,,,,,,,,,,,,,,,,876446,001,2026-01-30_11h20.33.129,Test,,2025.2.4,60.007044827070835,2026-01-30 11h20.36.719760 +1300,
fractals/fractal_complex_pair1_a_bright.png,fractals/fractal_complex_pair1_a_bright.png,fractals/fractal_complex_pair1_b_bright.png,5,10,0,0,0,0,0,0,0,,,,,,,,,,,,,,,,,165,2.6970839999999043,-0.0072705745697021484,0.04448147118091583,1,2.4666566000000785,,,,,,,,,,,,,,,,,,876446,001,2026-01-30_11h20.33.129,Test,,2025.2.4,60.007044827070835,2026-01-30 11h20.36.719760 +1300,
fractals/fractal_complex_pair1_a_bright.png,fractals/fractal_complex_pair1_a_bright.png,fractals/fractal_complex_pair1_b_bright.png,5,10,0,0,0,0,0,0,0,,,,,,,,,,,,,,,,,166,2.7139325999999073,-0.0078126589457194,0.044288188219070435,1,2.4835026000000653,,,,,,,,,,,,,,,,,,876446,001,2026-01-30_11h20.33.129,Test,,2025.2.4,60.007044827070835,2026-01-30 11h20.36.719760 +1300,
fractals/fractal_complex_pair1_a_bright.png,fractals/fractal_complex_pair1_a_bright.png,fractals/fractal_complex_pair1_b_bright.png,5,10,0,0,0,0,0,0,0,,,,,,,,,,,,,,,,,167,2.7303476999999248,-0.007594320509168836,0.04522012174129486,1,2.4999146999999766,,,,,,,,,,,,,,,,,,876446,001,2026-01-30_11h20.33.129,Test,,2025.2.4,60.007044827070835,2026-01-30 11h20.36.719760 +1300,
fractals/fractal_complex_pair1_a_bright.png,fractals/fractal_complex_pair1_a_bright.png,fractals/fractal_complex_pair1_b_bright.png,5,10,0,0,0,0,0,0,0,,,,,,,,,,,,,,,,,168,2.7470168999999487,-0.007632626427544488,0.04493588209152222,1,2.5165855000000192,,,,,,,,,,,,,,,,,,876446,001,2026-01-30_11h20.33.129,Test,,2025.2.4,60.007044827070835,2026-01-30 11h20.36.719760 +1300,
fractals/fractal_complex_pair1_a_bright.png,fractals/fractal_complex_pair1_a_bright.png,fractals/fractal_complex_pair1_b_bright.png,5,10,0,0,0,0,0,0,0,,,,,,,,,,,,,,,,,169,2.763748200000009,-0.006745497385660807,0.045792341232299805,1,2.533319600000027,,,,,,,,,,,,,,,,,,876446,001,2026-01-30_11h20.33.129,Test,,2025.2.4,60.007044827070835,2026-01-30 11h20.36.719760 +1300,
fractals/fractal_complex_pair1_a_bright.png,fractals/fractal_complex_pair1_a_bright.png,fractals/fractal_complex_pair1_b_bright.png,5,10,0,0,0,0,0,0,0,,,,,,,,,,,,,,,,,170,2.7804254999999785,-0.006709575653076172,0.04463094472885132,1,2.5499962999999752,,,,,,,,,,,,,,,,,,876446,001,2026-01-30_11h20.33.129,Test,,2025.2.4,60.007044827070835,2026-01-30 11h20.36.719760 +1300,
fractals/fractal_complex_pair1_a_bright.png,fractals/fractal_complex_pair1_a_bright.png,fractals/fractal_complex_pair1_b_bright.png,5,10,0,0,0,0,0,0,0,,,,,,,,,,,,,,,,,171,2.797111299999983,-0.007778114742702908,0.044148728251457214,1,2.566682700000001,,,,,,,,,,,,,,,,,,876446,001,2026-01-30_11h20.33.129,Test,,2025.2.4,60.007044827070835,2026-01-30 11h20.36.719760 +1300,
fractals/fractal_complex_pair1_a_bright.png,fractals/fractal_complex_pair1_a_bright.png,fractals/fractal_complex_pair1_b_bright.png,5,10,0,0,0,0,0,0,0,,,,,,,,,,,,,,,,,172,2.813799299999914,-0.007058302561442057,0.0413394421339035,1,2.583370500000001,,,,,,,,,,,,,,,,,,876446,001,2026-01-30_11h20.33.129,Test,,2025.2.4,60.007044827070835,2026-01-30 11h20.36.719760 +1300,
fractals/fractal_complex_pair1_a_bright.png,fractals/fractal_complex_pair1_a_bright.png,fractals/fractal_complex_pair1_b_bright.png,5,10,0,0,0,0,0,0,0,,,,,,,,,,,,,,,,,173,2.830450799999994,-0.006724993387858072,0.041570693254470825,1,2.6000263000000814,,,,,,,,,,,,,,,,,,876446,001,2026-01-30_11h20.33.129,Test,,2025.2.4,60.007044827070835,2026-01-30 11h20.36.719760 +1300,
fractals/fractal_complex_pair1_a_bright.png,fractals/fractal_complex_pair1_a_bright.png,fractals/fractal_complex_pair1_b_bright.png,5,10,0,0,0,0,0,0,0,,,,,,,,,,,,,,,,,174,2.8471190999999862,-0.007776949140760633,0.04015509784221649,1,2.616693199999986,,,,,,,,,,,,,,,,,,876446,001,2026-01-30_11h20.33.129,Test,,2025.2.4,60.007044827070835,2026-01-30 11h20.36.719760 +1300,
fractals/fractal_complex_pair1_a_bright.png,fractals/fractal_complex_pair1_a_bright.png,fractals/fractal_complex_pair1_b_bright.png,5,10,0,0,0,0,0,0,0,,,,,,,,,,,,,,,,,175,2.863752399999953,-0.007480197482638888,0.04164204001426697,1,2.633325099999979,,,,,,,,,,,,,,,,,,876446,001,2026-01-30_11h20.33.129,Test,,2025.2.4,60.007044827070835,2026-01-30 11h20.36.719760 +1300,
fractals/fractal_complex_pair1_a_bright.png,fractals/fractal_complex_pair1_a_bright.png,fractals/fractal_complex_pair1_b_bright.png,5,10,0,0,0,0,0,0,0,,,,,,,,,,,,,,,,,176,2.8804452999999057,-0.007448037465413411,0.04215790331363678,1,2.650018199999977,,,,,,,,,,,,,,,,,,876446,001,2026-01-30_11h20.33.129,Test,,2025.2.4,60.007044827070835,2026-01-30 11h20.36.719760 +1300,
fractals/fractal_complex_pair1_a_bright.png,fractals/fractal_complex_pair1_a_bright.png,fractals/fractal_complex_pair1_b_bright.png,5,10,0,0,0,0,0,0,0,,,,,,,,,,,,,,,,,177,2.8971058999999286,-0.007473283343844943,0.04070335626602173,1,2.666679199999976,,,,,,,,,,,,,,,,,,876446,001,2026-01-30_11h20.33.129,Test,,2025.2.4,60.007044827070835,2026-01-30 11h20.36.719760 +1300,
fractals/fractal_complex_pair1_a_bright.png,fractals/fractal_complex_pair1_a_bright.png,fractals/fractal_complex_pair1_b_bright.png,5,10,0,0,0,0,0,0,0,,,,,,,,,,,,,,,,,178,2.9137870999999222,-0.007670137617323133,0.039040178060531616,1,2.6833596999999827,,,,,,,,,,,,,,,,,,876446,001,2026-01-30_11h20.33.129,Test,,2025.2.4,60.007044827070835,2026-01-30 11h20.36.719760 +1300,
fractals/fractal_complex_pair1_a_bright.png,fractals/fractal_complex_pair1_a_bright.png,fractals/fractal_complex_pair1_b_bright.png,5,10,0,0,0,0,0,0,0,,,,,,,,,,,,,,,,,179,2.930443299999979,-0.008134312099880641,0.03527107834815979,1,2.7000170000000026,,,,,,,,,,,,,,,,,,876446,001,2026-01-30_11h20.33.129,Test,,2025.2.4,60.007044827070835,2026-01-30 11h20.36.719760 +1300,
fractals/fractal_complex_pair1_a_bright.png,fractals/fractal_complex_pair1_a_bright.png,fractals/fractal_complex_pair1_b_bright.png,5,10,0,0,0,0,0,0,0,,,,,,,,,,,,,,,,,180,2.9470555999999988,-0.008085674709743923,0.03475886583328247,1,2.716626700000006,,,,,,,,,,,,,,,,,,876446,001,2026-01-30_11h20.33.129,Test,,2025.2.4,60.007044827070835,2026-01-30 11h20.36.719760 +1300,
fractals/fractal_complex_pair1_a_bright.png,fractals/fractal_complex_pair1_a_bright.png,fractals/fractal_complex_pair1_b_bright.png,5,10,0,0,0,0,0,0,0,,,,,,,,,,,,,,,,,181,2.9637740999999096,-0.007392856809828016,0.03390386700630188,1,2.7333475000000362,,,,,,,,,,,,,,,,,,876446,001,2026-01-30_11h20.33.129,Test,,2025.2.4,60.007044827070835,2026-01-30 11h20.36.719760 +1300,
fractals/fractal_complex_pair1_a_bright.png,fractals/fractal_complex_pair1_a_bright.png,fractals/fractal_complex_pair1_b_bright.png,5,10,0,0,0,0,0,0,0,,,,,,,,,,,,,,,,,182,2.9804823999999144,-0.007411638895670572,0.03359012305736542,1,2.7500570000000835,,,,,,,,,,,,,,,,,,876446,001,2026-01-30_11h20.33.129,Test,,2025.2.4,60.007044827070835,2026-01-30 11h20.36.719760 +1300,
fractals/fractal_complex_pair1_a_bright.png,fractals/fractal_complex_pair1_a_bright.png,fractals/fractal_complex_pair1_b_bright.png,5,10,0,0,0,0,0,0,0,,,,,,,,,,,,,,,,,183,2.9973596999999472,-0.007720602883232964,0.033383339643478394,1,2.7669328000000633,,,,,,,,,,,,,,,,,,876446,001,2026-01-30_11h20.33.129,Test,,2025.2.4,60.007044827070835,2026-01-30 11h20.36.719760 +1300,
fractals/fractal_complex_pair1_a_bright.png,fractals/fractal_complex_pair1_a_bright.png,fractals/fractal_complex_pair1_b_bright.png,5,10,0,0,0,0,0,0,0,,,,,,,,,,,,,,,,,184,3.0138462999999547,-0.00787761476304796,0.03270277380943298,1,2.783425100000045,,,,,,,,,,,,,,,,,,876446,001,2026-01-30_11h20.33.129,Test,,2025.2.4,60.007044827070835,2026-01-30 11h20.36.719760 +1300,
fractals/fractal_complex_pair1_a_bright.png,fractals/fractal_complex_pair1_a_bright.png,fractals/fractal_complex_pair1_b_bright.png,5,10,0,0,0,0,0,0,0,,,,,,,,,,,,,,,,,185,3.030437599999914,-0.008281389872233072,0.03267712891101837,1,2.8000114000000167,,,,,,,,,,,,,,,,,,876446,001,2026-01-30_11h20.33.129,Test,,2025.2.4,60.007044827070835,2026-01-30 11h20.36.719760 +1300,
fractals/fractal_complex_pair1_a_bright.png,fractals/fractal_complex_pair1_a_bright.png,fractals/fractal_complex_pair1_b_bright.png,5,10,0,0,0,0,0,0,0,,,,,,,,,,,,,,,,,186,3.047111399999949,-0.007890727784898546,0.031999245285987854,1,2.8166853000000174,,,,,,,,,,,,,,,,,,876446,001,2026-01-30_11h20.33.129,Test,,2025.2.4,60.007044827070835,2026-01-30 11h20.36.719760 +1300,
fractals/fractal_complex_pair1_a_bright.png,fractals/fractal_complex_pair1_a_bright.png,fractals/fractal_complex_pair1_b_bright.png,5,10,0,0,0,0,0,0,0,,,,,,,,,,,,,,,,,187,3.063847899999928,-0.008180247412787544,0.031872183084487915,1,2.833421600000065,,,,,,,,,,,,,,,,,,876446,001,2026-01-30_11h20.33.129,Test,,2025.2.4,60.007044827070835,2026-01-30 11h20.36.719760 +1300,
fractals/fractal_complex_pair1_a_bright.png,fractals/fractal_complex_pair1_a_bright.png,fractals/fractal_complex_pair1_b_bright.png,5,10,0,0,0,0,0,0,0,,,,,,,,,,,,,,,,,188,3.080442199999993,9.907616509331597e-05,0.042930394411087036,1,2.8500161000000617,,,,,,,,,,,,,,,,,,876446,001,2026-01-30_11h20.33.129,Test,,2025.2.4,60.007044827070835,2026-01-30 11h20.36.719760 +1300,
fractals/fractal_complex_pair1_a_bright.png,fractals/fractal_complex_pair1_a_bright.png,fractals/fractal_complex_pair1_b_bright.png,5,10,0,0,0,0,0,0,0,,,,,,,,,,,,,,,,,189,3.097073899999941,-0.001953389909532335,0.04051394760608673,1,2.8666491999999835,,,,,,,,,,,,,,,,,,876446,001,2026-01-30_11h20.33.129,Test,,2025.2.4,60.007044827070835,2026-01-30 11h20.36.719760 +1300,
fractals/fractal_complex_pair1_a_bright.png,fractals/fractal_complex_pair1_a_bright.png,fractals/fractal_complex_pair1_b_bright.png,5,10,0,0,0,0,0,0,0,,,,,,,,,,,,,,,,,190,3.113816100000008,-0.0006852149963378906,0.040514037013053894,1,2.8833912000000055,,,,,,,,,,,,,,,,,,876446,001,2026-01-30_11h20.33.129,Test,,2025.2.4,60.007044827070835,2026-01-30 11h20.36.719760 +1300,
fractals/fractal_complex_pair1_a_bright.png,fractals/fractal_complex_pair1_a_bright.png,fractals/fractal_complex_pair1_b_bright.png,5,10,0,0,0,0,0,0,0,,,,,,,,,,,,,,,,,191,3.130500600000005,-0.00030729505750868056,0.04336772859096527,1,2.9000740999999834,,,,,,,,,,,,,,,,,,876446,001,2026-01-30_11h20.33.129,Test,,2025.2.4,60.007044827070835,2026-01-30 11h20.36.719760 +1300,
fractals/fractal_complex_pair1_a_bright.png,fractals/fractal_complex_pair1_a_bright.png,fractals/fractal_complex_pair1_b_bright.png,5,10,0,0,0,0,0,0,0,,,,,,,,,,,,,,,,,192,3.147076200000015,-0.0010409884982638888,0.03284381330013275,1,2.916649100000086,,,,,,,,,,,,,,,,,,876446,001,2026-01-30_11h20.33.129,Test,,2025.2.4,60.007044827070835,2026-01-30 11h20.36.719760 +1300,
fractals/fractal_complex_pair1_a_bright.png,fractals/fractal_complex_pair1_a_bright.png,fractals/fractal_complex_pair1_b_bright.png,5,10,0,0,0,0,0,0,0,,,,,,,,,,,,,,,,,193,3.163822699999969,0.0005588531494140625,0.039765864610672,1,2.9333988000000772,,,,,,,,,,,,,,,,,,876446,001,2026-01-30_11h20.33.129,Test,,2025.2.4,60.007044827070835,2026-01-30 11h20.36.719760 +1300,
fractals/fractal_complex_pair1_a_bright.png,fractals/fractal_complex_pair1_a_bright.png,fractals/fractal_complex_pair1_b_bright.png,5,10,0,0,0,0,0,0,0,,,,,,,,,,,,,,,,,194,3.180628200000001,-0.0003299713134765625,0.04407249391078949,1,2.9502052000000276,,,,,,,,,,,,,,,,,,876446,001,2026-01-30_11h20.33.129,Test,,2025.2.4,60.007044827070835,2026-01-30 11h20.36.719760 +1300,
fractals/fractal_complex_pair1_a_bright.png,fractals/fractal_complex_pair1_a_bright.png,fractals/fractal_complex_pair1_b_bright.png,5,10,0,0,0,0,0,0,0,,,,,,,,,,,,,,,,,195,3.197167899999954,0.0010559823777940539,0.03973717987537384,1,2.9667445000000043,,,,,,,,,,,,,,,,,,876446,001,2026-01-30_11h20.33.129,Test,,2025.2.4,60.007044827070835,2026-01-30 11h20.36.719760 +1300,
fractals/fractal_complex_pair1_a_bright.png,fractals/fractal_complex_pair1_a_bright.png,fractals/fractal_complex_pair1_b_bright.png,5,10,0,0,0,0,0,0,0,,,,,,,,,,,,,,,,,196,3.2138782999999194,0.0018025504218207465,0.038760215044021606,1,2.9834527000000435,,,,,,,,,,,,,,,,,,876446,001,2026-01-30_11h20.33.129,Test,,2025.2.4,60.007044827070835,2026-01-30 11h20.36.719760 +1300,
fractals/fractal_complex_pair1_a_bright.png,fractals/fractal_complex_pair1_a_bright.png,fractals/fractal_complex_pair1_b_bright.png,5,10,0,0,0,0,0,0,0,,,,,,,,,,,,,,,,,197,3.23050319999993,0.0009998215569390191,0.04446284472942352,1,3.000076799999988,,,,,,,,,,,,,,,,,,876446,001,2026-01-30_11h20.33.129,Test,,2025.2.4,60.007044827070835,2026-01-30 11h20.36.719760 +1300,
fractals/fractal_complex_pair1_a_bright.png,fractals/fractal_complex_pair1_a_bright.png,fractals/fractal_complex_pair1_b_bright.png,5,10,0,0,0,0,0,0,0,,,,,,,,,,,,,,,,,198,3.2470759999999927,0.0003797213236490885,0.04144489765167236,1,3.0166471,,,,,,,,,,,,,,,,,,876446,001,2026-01-30_11h20.33.129,Test,,2025.2.4,60.007044827070835,2026-01-30 11h20.36.719760 +1300,
fractals/fractal_complex_pair1_a_bright.png,fractals/fractal_complex_pair1_a_bright.png,fractals/fractal_complex_pair1_b_bright.png,5,10,0,0,0,0,0,0,0,,,,,,,,,,,,,,,,,199,3.2638101999999662,-0.0017493565877278645,0.03883560001850128,1,3.0333828000000267,,,,,,,,,,,,,,,,,,876446,001,2026-01-30_11h20.33.129,Test,,2025.2.4,60.007044827070835,2026-01-30 11h20.36.719760 +1300,
fractals/fractal_complex_pair1_a_bright.png,fractals/fractal_complex_pair1_a_bright.png,fractals/fractal_complex_pair1_b_bright.png,5,10,0,0,0,0,0,0,0,,,,,,,,,,,,,,,,,200,3.2804347000000007,-0.001196040047539605,0.0441281795501709,1,3.0500010000000657,,,,,,,,,,,,,,,,,,876446,001,2026-01-30_11h20.33.129,Test,,2025.2.4,60.007044827070835,2026-01-30 11h20.36.719760 +1300,
fractals/fractal_complex_pair1_a_bright.png,fractals/fractal_complex_pair1_a_bright.png,fractals/fractal_complex_pair1_b_bright.png,5,10,0,0,0,0,0,0,0,,,,,,,,,,,,,,,,,201,3.297030800000016,-0.0011890199449327255,0.042952001094818115,1,3.0665979000000334,,,,,,,,,,,,,,,,,,876446,001,2026-01-30_11h20.33.129,Test,,2025.2.4,60.007044827070835,2026-01-30 11h20.36.719760 +1300,
fractals/fractal_complex_pair1_a_bright.png,fractals/fractal_complex_pair1_a_bright.png,fractals/fractal_complex_pair1_b_bright.png,5,10,0,0,0,0,0,0,0,,,,,,,,,,,,,,,,,202,3.313733299999967,-0.00044933954874674476,0.04177692532539368,1,3.0833032000000458,,,,,,,,,,,,,,,,,,876446,001,2026-01-30_11h20.33.129,Test,,2025.2.4,60.007044827070835,2026-01-30 11h20.36.719760 +1300,
fractals/fractal_complex_pair1_a_bright.png,fractals/fractal_complex_pair1_a_bright.png,fractals/fractal_complex_pair1_b_bright.png,5,10,0,0,0,0,0,0,0,,,,,,,,,,,,,,,,,203,3.330464699999993,-0.0006574259863959418,0.044096410274505615,1,3.1000382000000855,,,,,,,,,,,,,,,,,,876446,001,2026-01-30_11h20.33.129,Test,,2025.2.4,60.007044827070835,2026-01-30 11h20.36.719760 +1300,
fractals/fractal_complex_pair1_a_bright.png,fractals/fractal_complex_pair1_a_bright.png,fractals/fractal_complex_pair1_b_bright.png,5,10,0,0,0,0,0,0,0,,,,,,,,,,,,,,,,,204,3.3471238999999287,8.54863060845269e-05,0.04435230791568756,1,3.1166961999999785,,,,,,,,,,,,,,,,,,876446,001,2026-01-30_11h20.33.129,Test,,2025.2.4,60.007044827070835,2026-01-30 11h20.36.719760 +1300,
fractals/fractal_complex_pair1_a_bright.png,fractals/fractal_complex_pair1_a_bright.png,fractals/fractal_complex_pair1_b_bright.png,5,10,0,0,0,0,0,0,0,,,,,,,,,,,,,,,,,205,3.3637482999999975,0.0008647176954481336,0.04540298879146576,1,3.1333204000000023,,,,,,,,,,,,,,,,,,876446,001,2026-01-30_11h20.33.129,Test,,2025.2.4,60.007044827070835,2026-01-30 11h20.36.719760 +1300,
fractals/fractal_complex_pair1_a_bright.png,fractals/fractal_complex_pair1_a_bright.png,fractals/fractal_complex_pair1_b_bright.png,5,10,0,0,0,0,0,0,0,,,,,,,,,,,,,,,,,206,3.380470999999943,0.0006877581278483073,0.04635700583457947,1,3.150045299999988,,,,,,,,,,,,,,,,,,876446,001,2026-01-30_11h20.33.129,Test,,2025.2.4,60.007044827070835,2026-01-30 11h20.36.719760 +1300,
fractals/fractal_complex_pair1_a_bright.png,fractals/fractal_complex_pair1_a_bright.png,fractals/fractal_complex_pair1_b_bright.png,5,10,0,0,0,0,0,0,0,,,,,,,,,,,,,,,,,207,3.3971467000000075,-0.0004494455125596788,0.04618319869041443,1,3.166721900000084,,,,,,,,,,,,,,,,,,876446,001,2026-01-30_11h20.33.129,Test,,2025.2.4,60.007044827070835,2026-01-30 11h20.36.719760 +1300,
fractals/fractal_complex_pair1_a_bright.png,fractals/fractal_complex_pair1_a_bright.png,fractals/fractal_complex_pair1_b_bright.png,5,10,0,0,0,0,0,0,0,,,,,,,,,,,,,,,,,208,3.413806799999975,-0.0010014110141330294,0.04418689012527466,1,3.1833804000000328,,,,,,,,,,,,,,,,,,876446,001,2026-01-30_11h20.33.129,Test,,2025.2.4,60.007044827070835,2026-01-30 11h20.36.719760 +1300,
fractals/fractal_complex_pair1_a_bright.png,fractals/fractal_complex_pair1_a_bright.png,fractals/fractal_complex_pair1_b_bright.png,5,10,0,0,0,0,0,0,0,,,,,,,,,,,,,,,,,209,3.4304679999999053,-0.0005677541097005208,0.044895514845848083,1,3.2000441999999794,,,,,,,,,,,,,,,,,,876446,001,2026-01-30_11h20.33.129,Test,,2025.2.4,60.007044827070835,2026-01-30 11h20.36.719760 +1300,
fractals/fractal_complex_pair1_a_bright.png,fractals/fractal_complex_pair1_a_bright.png,fractals/fractal_complex_pair1_b_bright.png,5,10,0,0,0,0,0,0,0,,,,,,,,,,,,,,,,,210,3.4471834999999373,-1.1920928955078125e-05,0.04504591226577759,1,3.2167567999999847,,,,,,,,,,,,,,,,,,876446,001,2026-01-30_11h20.33.129,Test,,2025.2.4,60.007044827070835,2026-01-30 11h20.36.719760 +1300,
fractals/fractal_complex_pair1_a_bright.png,fractals/fractal_complex_pair1_a_bright.png,fractals/fractal_complex_pair1_b_bright.png,5,10,0,0,0,0,0,0,0,,,,,,,,,,,,,,,,,211,3.463784999999916,0.0003288586934407552,0.04447820782661438,1,3.233357500000011,,,,,,,,,,,,,,,,,,876446,001,2026-01-30_11h20.33.129,Test,,2025.2.4,60.007044827070835,2026-01-30 11h20.36.719760 +1300,
fractals/fractal_complex_pair1_a_bright.png,fractals/fractal_complex_pair1_a_bright.png,fractals/fractal_complex_pair1_b_bright.png,5,10,0,0,0,0,0,0,0,,,,,,,,,,,,,,,,,212,3.48043169999994,-0.0008709430694580078,0.04535360634326935,1,3.2500052000000323,,,,,,,,,,,,,,,,,,876446,001,2026-01-30_11h20.33.129,Test,,2025.2.4,60.007044827070835,2026-01-30 11h20.36.719760 +1300,
fractals/fractal_complex_pair1_a_bright.png,fractals/fractal_complex_pair1_a_bright.png,fractals/fractal_complex_pair1_b_bright.png,5,10,0,0,0,0,0,0,0,,,,,,,,,,,,,,,,,213,3.4973056000000042,-0.001106897989908854,0.04535147547721863,1,3.2668782000000647,,,,,,,,,,,,,,,,,,876446,001,2026-01-30_11h20.33.129,Test,,2025.2.4,60.007044827070835,2026-01-30 11h20.36.719760 +1300,
fractals/fractal_complex_pair1_a_bright.png,fractals/fractal_complex_pair1_a_bright.png,fractals/fractal_complex_pair1_b_bright.png,5,10,0,0,0,0,0,0,0,,,,,,,,,,,,,,,,,214,3.513782399999968,-0.0002818902333577474,0.04602983593940735,1,3.283354000000031,,,,,,,,,,,,,,,,,,876446,001,2026-01-30_11h20.33.129,Test,,2025.2.4,60.007044827070835,2026-01-30 11h20.36.719760 +1300,
fractals/fractal_complex_pair1_a_bright.png,fractals/fractal_complex_pair1_a_bright.png,fractals/fractal_complex_pair1_b_bright.png,5,10,0,0,0,0,0,0,0,,,,,,,,,,,,,,,,,215,3.5306145999999217,0.0009409056769476996,0.044093698263168335,1,3.3001950999999963,,,,,,,,,,,,,,,,,,876446,001,2026-01-30_11h20.33.129,Test,,2025.2.4,60.007044827070835,2026-01-30 11h20.36.719760 +1300,
fractals/fractal_complex_pair1_a_bright.png,fractals/fractal_complex_pair1_a_bright.png,fractals/fractal_complex_pair1_b_bright.png,5,10,0,0,0,0,0,0,0,,,,,,,,,,,,,,,,,216,3.5470818999999665,-0.001209682888454861,0.04559867084026337,1,3.316653400000064,,,,,,,,,,,,,,,,,,876446,001,2026-01-30_11h20.33.129,Test,,2025.2.4,60.007044827070835,2026-01-30 11h20.36.719760 +1300,
fractals/fractal_complex_pair1_a_bright.png,fractals/fractal_complex_pair1_a_bright.png,fractals/fractal_complex_pair1_b_bright.png,5,10,0,0,0,0,0,0,0,,,,,,,,,,,,,,,,,217,3.563831299999947,-0.00054931640625,0.04470852017402649,1,3.3334019000000126,,,,,,,,,,,,,,,,,,876446,001,2026-01-30_11h20.33.129,Test,,2025.2.4,60.007044827070835,2026-01-30 11h20.36.719760 +1300,
fractals/fractal_complex_pair1_a_bright.png,fractals/fractal_complex_pair1_a_bright.png,fractals/fractal_complex_pair1_b_bright.png,5,10,0,0,0,0,0,0,0,,,,,,,,,,,,,,,,,218,3.5804835999999796,7.727411058213975e-05,0.0450100302696228,1,3.3500552000000425,,,,,,,,,,,,,,,,,,876446,001,2026-01-30_11h20.33.129,Test,,2025.2.4,60.007044827070835,2026-01-30 11h20.36.719760 +1300,
fractals/fractal_complex_pair1_a_bright.png,fractals/fractal_complex_pair1_a_bright.png,fractals/fractal_complex_pair1_b_bright.png,5,10,0,0,0,0,0,0,0,,,,,,,,,,,,,,,,,219,3.5971168999999463,-0.001564078860812717,0.04500901699066162,1,3.366690100000028,,,,,,,,,,,,,,,,,,876446,001,2026-01-30_11h20.33.129,Test,,2025.2.4,60.007044827070835,2026-01-30 11h20.36.719760 +1300,
fractals/fractal_complex_pair1_a_bright.png,fractals/fractal_complex_pair1_a_bright.png,fractals/fractal_complex_pair1_b_bright.png,5,10,0,0,0,0,0,0,0,,,,,,,,,,,,,,,,,220,3.613798999999972,0.001964357164171007,0.05001309514045715,1,3.3833768000000646,,,,,,,,,,,,,,,,,,876446,001,2026-01-30_11h20.33.129,Test,,2025.2.4,60.007044827070835,2026-01-30 11h20.36.719760 +1300,
fractals/fractal_complex_pair1_a_bright.png,fractals/fractal_complex_pair1_a_bright.png,fractals/fractal_complex_pair1_b_bright.png,5,10,0,0,0,0,0,0,0,,,,,,,,,,,,,,,,,221,3.6304693999999245,0.0038331879509819877,0.051454007625579834,1,3.4000442999999905,,,,,,,,,,,,,,,,,,876446,001,2026-01-30_11h20.33.129,Test,,2025.2.4,60.007044827070835,2026-01-30 11h20.36.719760 +1300,
fractals/fractal_complex_pair1_a_bright.png,fractals/fractal_complex_pair1_a_bright.png,fractals/fractal_complex_pair1_b_bright.png,5,10,0,0,0,0,0,0,0,,,,,,,,,,,,,,,,,222,3.6471490999999787,0.004664368099636502,0.04900100827217102,1,3.416727000000037,,,,,,,,,,,,,,,,,,876446,001,2026-01-30_11h20.33.129,Test,,2025.2.4,60.007044827070835,2026-01-30 11h20.36.719760 +1300,
fractals/fractal_complex_pair1_a_bright.png,fractals/fractal_complex_pair1_a_bright.png,fractals/fractal_complex_pair1_b_bright.png,5,10,0,0,0,0,0,0,0,,,,,,,,,,,,,,,,,223,3.663845199999969,0.006997585296630859,0.04976239800453186,1,3.433419200000003,,,,,,,,,,,,,,,,,,876446,001,2026-01-30_11h20.33.129,Test,,2025.2.4,60.007044827070835,2026-01-30 11h20.36.719760 +1300,
fractals/fractal_complex_pair1_a_bright.png,fractals/fractal_complex_pair1_a_bright.png,fractals/fractal_complex_pair1_b_bright.png,5,10,0,0,0,0,0,0,0,,,,,,,,,,,,,,,,,224,3.680407299999956,0.006503317091200086,0.04979383945465088,1,3.449977600000011,,,,,,,,,,,,,,,,,,876446,001,2026-01-30_11h20.33.129,Test,,2025.2.4,60.007044827070835,2026-01-30 11h20.36.719760 +1300,
fractals/fractal_complex_pair1_a_bright.png,fractals/fractal_complex_pair1_a_bright.png,fractals/fractal_complex_pair1_b_bright.png,5,10,0,0,0,0,0,0,0,,,,,,,,,,,,,,,,,225,3.6971436999999696,0.005957656436496311,0.050721749663352966,1,3.4667133000000376,,,,,,,,,,,,,,,,,,876446,001,2026-01-30_11h20.33.129,Test,,2025.2.4,60.007044827070835,2026-01-30 11h20.36.719760 +1300,
fractals/fractal_complex_pair1_a_bright.png,fractals/fractal_complex_pair1_a_bright.png,fractals/fractal_complex_pair1_b_bright.png,5,10,0,0,0,0,0,0,0,,,,,,,,,,,,,,,,,226,3.7137672999999722,0.004971000883314344,0.04705232381820679,1,3.483335900000043,,,,,,,,,,,,,,,,,,876446,001,2026-01-30_11h20.33.129,Test,,2025.2.4,60.007044827070835,2026-01-30 11h20.36.719760 +1300,
fractals/fractal_complex_pair1_a_bright.png,fractals/fractal_complex_pair1_a_bright.png,fractals/fractal_complex_pair1_b_bright.png,5,10,0,0,0,0,0,0,0,,,,,,,,,,,,,,,,,227,3.7304009999999153,0.002374225192599826,0.0486052930355072,1,3.4999701000000414,,,,,,,,,,,,,,,,,,876446,001,2026-01-30_11h20.33.129,Test,,2025.2.4,60.007044827070835,2026-01-30 11h20.36.719760 +1300,
fractals/fractal_complex_pair1_a_bright.png,fractals/fractal_complex_pair1_a_bright.png,fractals/fractal_complex_pair1_b_bright.png,5,10,0,0,0,0,0,0,0,,,,,,,,,,,,,,,,,228,3.7470453999999336,0.0019261572096082899,0.04941768944263458,1,3.5166143000000147,,,,,,,,,,,,,,,,,,876446,001,2026-01-30_11h20.33.129,Test,,2025.2.4,60.007044827070835,2026-01-30 11h20.36.719760 +1300,
fractals/fractal_complex_pair1_a_bright.png,fractals/fractal_complex_pair1_a_bright.png,fractals/fractal_complex_pair1_b_bright.png,5,10,0,0,0,0,0,0,0,,,,,,,,,,,,,,,,,229,3.763770299999919,0.0018315315246582031,0.043235450983047485,1,3.5333413000000746,,,,,,,,,,,,,,,,,,876446,001,2026-01-30_11h20.33.129,Test,,2025.2.4,60.007044827070835,2026-01-30 11h20.36.719760 +1300,
fractals/fractal_complex_pair1_a_bright.png,fractals/fractal_complex_pair1_a_bright.png,fractals/fractal_complex_pair1_b_bright.png,5,10,0,0,0,0,0,0,0,,,,,,,,,,,,,,,,,230,3.780546799999911,0.003614478641086154,0.04765239357948303,1,3.55012499999998,,,,,,,,,,,,,,,,,,876446,001,2026-01-30_11h20.33.129,Test,,2025.2.4,60.007044827070835,2026-01-30 11h20.36.719760 +1300,
fractals/fractal_complex_pair1_a_bright.png,fractals/fractal_complex_pair1_a_bright.png,fractals/fractal_complex_pair1_b_bright.png,5,10,0,0,0,0,0,0,0,,,,,,,,,,,,,,,,,231,3.7972750000000133,0.004811843236287435,0.04711431264877319,1,3.566850400000021,,,,,,,,,,,,,,,,,,876446,001,2026-01-30_11h20.33.129,Test,,2025.2.4,60.007044827070835,2026-01-30 11h20.36.719760 +1300,
fractals/fractal_complex_pair1_a_bright.png,fractals/fractal_complex_pair1_a_bright.png,fractals/fractal_complex_pair1_b_bright.png,5,10,0,0,0,0,0,0,0,,,,,,,,,,,,,,,,,232,3.813856699999974,0.004810651143391927,0.05140857398509979,1,3.583431800000085,,,,,,,,,,,,,,,,,,876446,001,2026-01-30_11h20.33.129,Test,,2025.2.4,60.007044827070835,2026-01-30 11h20.36.719760 +1300,
fractals/fractal_complex_pair1_a_bright.png,fractals/fractal_complex_pair1_a_bright.png,fractals/fractal_complex_pair1_b_bright.png,5,10,0,0,0,0,0,0,0,,,,,,,,,,,,,,,,,233,3.83059209999999,0.0033156341976589626,0.049690499901771545,1,3.600167400000032,,,,,,,,,,,,,,,,,,876446,001,2026-01-30_11h20.33.129,Test,,2025.2.4,60.007044827070835,2026-01-30 11h20.36.719760 +1300,
fractals/fractal_complex_pair1_a_bright.png,fractals/fractal_complex_pair1_a_bright.png,fractals/fractal_complex_pair1_b_bright.png,5,10,0,0,0,0,0,0,0,,,,,,,,,,,,,,,,,234,3.847294799999986,0.001776350869072808,0.044666945934295654,1,3.616869100000031,,,,,,,,,,,,,,,,,,876446,001,2026-01-30_11h20.33.129,Test,,2025.2.4,60.007044827070835,2026-01-30 11h20.36.719760 +1300,
fractals/fractal_complex_pair1_a_bright.png,fractals/fractal_complex_pair1_a_bright.png,fractals/fractal_complex_pair1_b_bright.png,5,10,0,0,0,0,0,0,0,,,,,,,,,,,,,,,,,235,3.863811499999997,0.0023902787102593314,0.048691824078559875,1,3.6333914000000505,,,,,,,,,,,,,,,,,,876446,001,2026-01-30_11h20.33.129,Test,,2025.2.4,60.007044827070835,2026-01-30 11h20.36.719760 +1300,
fractals/fractal_complex_pair1_a_bright.png,fractals/fractal_complex_pair1_a_bright.png,fractals/fractal_complex_pair1_b_bright.png,5,10,0,0,0,0,0,0,0,,,,,,,,,,,,,,,,,236,3.8806895999999824,0.0033051172892252603,0.04494810104370117,1,3.650263900000027,,,,,,,,,,,,,,,,,,876446,001,2026-01-30_11h20.33.129,Test,,2025.2.4,60.007044827070835,2026-01-30 11h20.36.719760 +1300,
fractals/fractal_complex_pair1_a_bright.png,fractals/fractal_complex_pair1_a_bright.png,fractals/fractal_complex_pair1_b_bright.png,5,10,0,0,0,0,0,0,0,,,,,,,,,,,,,,,,,237,3.897183199999972,0.0038664076063368055,0.05289989709854126,1,3.6667614000000412,,,,,,,,,,,,,,,,,,876446,001,2026-01-30_11h20.33.129,Test,,2025.2.4,60.007044827070835,2026-01-30 11h20.36.719760 +1300,
fractals/fractal_complex_pair1_a_bright.png,fractals/fractal_complex_pair1_a_bright.png,fractals/fractal_complex_pair1_b_bright.png,5,10,0,0,0,0,0,0,0,,,,,,,,,,,,,,,,,238,3.9138169999999946,0.0033436881171332463,0.05089682340621948,1,3.683394900000053,,,,,,,,,,,,,,,,,,876446,001,2026-01-30_11h20.33.129,Test,,2025.2.4,60.007044827070835,2026-01-30 11h20.36.719760 +1300,
fractals/fractal_complex_pair1_a_bright.png,fractals/fractal_complex_pair1_a_bright.png,fractals/fractal_complex_pair1_b_bright.png,5,10,0,0,0,0,0,0,0,,,,,,,,,,,,,,,,,239,3.930681800000002,0.003928131527370877,0.055516570806503296,1,3.7002595000000156,,,,,,,,,,,,,,,,,,876446,001,2026-01-30_11h20.33.129,Test,,2025.2.4,60.007044827070835,2026-01-30 11h20.36.719760 +1300,
fractals/fractal_complex_pair1_a_bright.png,fractals/fractal_complex_pair1_a_bright.png,fractals/fractal_complex_pair1_b_bright.png,5,10,0,0,0,0,0,0,0,,,,,,,,,,,,,,,,,240,3.9473594999999477,0.0027243561214870876,0.05478954315185547,1,3.716935700000022,,,,,,,,,,,,,,,,,,876446,001,2026-01-30_11h20.33.129,Test,,2025.2.4,60.007044827070835,2026-01-30 11h20.36.719760 +1300,
fractals/fractal_complex_pair1_a_bright.png,fractals/fractal_complex_pair1_a_bright.png,fractals/fractal_complex_pair1_b_bright.png,5,10,0,0,0,0,0,0,0,,,,,,,,,,,,,,,,,241,3.9639379999999846,0.003174463907877604,0.05404439568519592,1,3.7335156000000325,,,,,,,,,,,,,,,,,,876446,001,2026-01-30_11h20.33.129,Test,,2025.2.4,60.007044827070835,2026-01-30 11h20.36.719760 +1300,
fractals/fractal_complex_pair1_a_bright.png,fractals/fractal_complex_pair1_a_bright.png,fractals/fractal_complex_pair1_b_bright.png,5,10,0,0,0,0,0,0,0,,,,,,,,,,,,,,,,,242,3.9804492999999184,0.0037081771426730682,0.0559849888086319,1,3.7500237000000425,,,,,,,,,,,,,,,,,,876446,001,2026-01-30_11h20.33.129,Test,,2025.2.4,60.007044827070835,2026-01-30 11h20.36.719760 +1300,
fractals/fractal_complex_pair1_a_bright.png,fractals/fractal_complex_pair1_a_bright.png,fractals/fractal_complex_pair1_b_bright.png,5,10,0,0,0,0,0,0,0,,,,,,,,,,,,,,,,,243,3.9971303999999463,0.0027107132805718314,0.054709792137145996,1,3.7667032000000518,,,,,,,,,,,,,,,,,,876446,001,2026-01-30_11h20.33.129,Test,,2025.2.4,60.007044827070835,2026-01-30 11h20.36.719760 +1300,
fractals/fractal_complex_pair1_a_bright.png,fractals/fractal_complex_pair1_a_bright.png,fractals/fractal_complex_pair1_b_bright.png,5,10,0,0,0,0,0,0,0,,,,,,,,,,,,,,,,,244,4.013792599999988,0.0022065374586317274,0.05461607873439789,1,3.7833645000000615,,,,,,,,,,,,,,,,,,876446,001,2026-01-30_11h20.33.129,Test,,2025.2.4,60.007044827070835,2026-01-30 11h20.36.719760 +1300,
fractals/fractal_complex_pair1_a_bright.png,fractals/fractal_complex_pair1_a_bright.png,fractals/fractal_complex_pair1_b_bright.png,5,10,0,0,0,0,0,0,0,,,,,,,,,,,,,,,,,245,4.030489399999965,0.003223949008517795,0.05606180429458618,1,3.8000620000000254,,,,,,,,,,,,,,,,,,876446,001,2026-01-30_11h20.33.129,Test,,2025.2.4,60.007044827070835,2026-01-30 11h20.36.719760 +1300,
fractals/fractal_complex_pair1_a_bright.png,fractals/fractal_complex_pair1_a_bright.png,fractals/fractal_complex_pair1_b_bright.png,5,10,0,0,0,0,0,0,0,,,,,,,,,,,,,,,,,246,4.047060899999906,0.0023440784878200954,0.055844008922576904,1,3.8166290000000345,,,,,,,,,,,,,,,,,,876446,001,2026-01-30_11h20.33.129,Test,,2025.2.4,60.007044827070835,2026-01-30 11h20.36.719760 +1300,
fractals/fractal_complex_pair1_a_bright.png,fractals/fractal_complex_pair1_a_bright.png,fractals/fractal_complex_pair1_b_bright.png,5,10,0,0,0,0,0,0,0,,,,,,,,,,,,,,,,,247,4.063830800000005,0.002427154117160373,0.05548594892024994,1,3.8334067000000687,,,,,,,,,,,,,,,,,,876446,001,2026-01-30_11h20.33.129,Test,,2025.2.4,60.007044827070835,2026-01-30 11h20.36.719760 +1300,
fractals/fractal_complex_pair1_a_bright.png,fractals/fractal_complex_pair1_a_bright.png,fractals/fractal_complex_pair1_b_bright.png,5,10,0,0,0,0,0,0,0,,,,,,,,,,,,,,,,,248,4.0804491999999755,0.0033893585205078125,0.05587022006511688,1,3.850024899999994,,,,,,,,,,,,,,,,,,876446,001,2026-01-30_11h20.33.129,Test,,2025.2.4,60.007044827070835,2026-01-30 11h20.36.719760 +1300,
fractals/fractal_complex_pair1_a_bright.png,fractals/fractal_complex_pair1_a_bright.png,fractals/fractal_complex_pair1_b_bright.png,5,10,0,0,0,0,0,0,0,,,,,,,,,,,,,,,,,249,4.097276299999976,0.0027101304796006945,0.05585649609565735,1,3.866849900000034,,,,,,,,,,,,,,,,,,876446,001,2026-01-30_11h20.33.129,Test,,2025.2.4,60.007044827070835,2026-01-30 11h20.36.719760 +1300,
fractals/fractal_complex_pair1_a_bright.png,fractals/fractal_complex_pair1_a_bright.png,fractals/fractal_complex_pair1_b_bright.png,5,10,0,0,0,0,0,0,0,,,,,,,,,,,,,,,,,250,4.1137809999999035,0.0030891100565592446,0.05455794930458069,1,3.8833594000000176,,,,,,,,,,,,,,,,,,876446,001,2026-01-30_11h20.33.129,Test,,2025.2.4,60.007044827070835,2026-01-30 11h20.36.719760 +1300,
fractals/fractal_complex_pair1_a_bright.png,fractals/fractal_complex_pair1_a_bright.png,fractals/fractal_complex_pair1_b_bright.png,5,10,0,0,0,0,0,0,0,,,,,,,,,,,,,,,,,251,4.1306491999999935,0.002165979809231228,0.053964897990226746,1,3.9002272000000175,,,,,,,,,,,,,,,,,,876446,001,2026-01-30_11h20.33.129,Test,,2025.2.4,60.007044827070835,2026-01-30 11h20.36.719760 +1300,
fractals/fractal_complex_pair1_a_bright.png,fractals/fractal_complex_pair1_a_bright.png,fractals/fractal_complex_pair1_b_bright.png,5,10,0,0,0,0,0,0,0,,,,,,,,,,,,,,,,,252,4.147099199999957,0.0027529398600260415,0.0543055534362793,1,3.916673899999978,,,,,,,,,,,,,,,,,,876446,001,2026-01-30_11h20.33.129,Test,,2025.2.4,60.007044827070835,2026-01-30 11h20.36.719760 +1300,
fractals/fractal_complex_pair1_a_bright.png,fractals/fractal_complex_pair1_a_bright.png,fractals/fractal_complex_pair1_b_bright.png,5,10,0,0,0,0,0,0,0,,,,,,,,,,,,,,,,,253,4.163801899999953,0.00299533208211263,0.05367761850357056,1,3.9333755999999767,,,,,,,,,,,,,,,,,,876446,001,2026-01-30_11h20.33.129,Test,,2025.2.4,60.007044827070835,2026-01-30 11h20.36.719760 +1300,
fractals/fractal_complex_pair1_a_bright.png,fractals/fractal_complex_pair1_a_bright.png,fractals/fractal_complex_pair1_b_bright.png,5,10,0,0,0,0,0,0,0,,,,,,,,,,,,,,,,,254,4.180440399999952,0.001841147740681966,0.05414929986000061,1,3.9500139000000445,,,,,,,,,,,,,,,,,,876446,001,2026-01-30_11h20.33.129,Test,,2025.2.4,60.007044827070835,2026-01-30 11h20.36.719760 +1300,
fractals/fractal_complex_pair1_a_bright.png,fractals/fractal_complex_pair1_a_bright.png,fractals/fractal_complex_pair1_b_bright.png,5,10,0,0,0,0,0,0,0,,,,,,,,,,,,,,,,,255,4.197148099999936,0.0026151339213053384,0.05501663684844971,1,3.966723100000081,,,,,,,,,,,,,,,,,,876446,001,2026-01-30_11h20.33.129,Test,,2025.2.4,60.007044827070835,2026-01-30 11h20.36.719760 +1300,
fractals/fractal_complex_pair1_a_bright.png,fractals/fractal_complex_pair1_a_bright.png,fractals/fractal_complex_pair1_b_bright.png,5,10,0,0,0,0,0,0,0,,,,,,,,,,,,,,,,,256,4.213855699999954,0.004261652628580729,0.055766403675079346,1,3.9834329000000253,,,,,,,,,,,,,,,,,,876446,001,2026-01-30_11h20.33.129,Test,,2025.2.4,60.007044827070835,2026-01-30 11h20.36.719760 +1300,
fractals/fractal_complex_pair1_a_bright.png,fractals/fractal_complex_pair1_a_bright.png,fractals/fractal_complex_pair1_b_bright.png,5,10,0,0,0,0,0,0,0,,,,,,,,,,,,,,,,,257,4.230523699999935,0.0034833219316270612,0.05436624586582184,1,4.0001005000000305,,,,,,,,,,,,,,,,,,876446,001,2026-01-30_11h20.33.129,Test,,2025.2.4,60.007044827070835,2026-01-30 11h20.36.719760 +1300,
fractals/fractal_complex_pair1_a_bright.png,fractals/fractal_complex_pair1_a_bright.png,fractals/fractal_complex_pair1_b_bright.png,5,10,0,0,0,0,0,0,0,,,,,,,,,,,,,,,,,258,4.2471294999999145,0.003511057959662543,0.054062068462371826,1,4.01670630000001,,,,,,,,,,,,,,,,,,876446,001,2026-01-30_11h20.33.129,Test,,2025.2.4,60.007044827070835,2026-01-30 11h20.36.719760 +1300,
fractals/fractal_complex_pair1_a_bright.png,fractals/fractal_complex_pair1_a_bright.png,fractals/fractal_complex_pair1_b_bright.png,5,10,0,0,0,0,0,0,0,,,,,,,,,,,,,,,,,259,4.263839399999938,0.0023485819498697915,0.05435526371002197,1,4.033416299999999,,,,,,,,,,,,,,,,,,876446,001,2026-01-30_11h20.33.129,Test,,2025.2.4,60.007044827070835,2026-01-30 11h20.36.719760 +1300,
fractals/fractal_complex_pair1_a_bright.png,fractals/fractal_complex_pair1_a_bright.png,fractals/fractal_complex_pair1_b_bright.png,5,10,0,0,0,0,0,0,0,,,,,,,,,,,,,,,,,260,4.280453999999963,0.0032994217342800563,0.05500718951225281,1,4.050029900000027,,,,,,,,,,,,,,,,,,876446,001,2026-01-30_11h20.33.129,Test,,2025.2.4,60.007044827070835,2026-01-30 11h20.36.719760 +1300,
fractals/fractal_complex_pair1_a_bright.png,fractals/fractal_complex_pair1_a_bright.png,fractals/fractal_complex_pair1_b_bright.png,5,10,0,0,0,0,0,0,0,,,,,,,,,,,,,,,,,261,4.29708299999993,0.0025626818339029946,0.054783523082733154,1,4.066657200000009,,,,,,,,,,,,,,,,,,876446,001,2026-01-30_11h20.33.129,Test,,2025.2.4,60.007044827070835,2026-01-30 11h20.36.719760 +1300,
fractals/fractal_complex_pair1_a_bright.png,fractals/fractal_complex_pair1_a_bright.png,fractals/fractal_complex_pair1_b_bright.png,5,10,0,0,0,0,0,0,0,,,,,,,,,,,,,,,,,262,4.313868699999944,0.0024460421668158635,0.05676881968975067,1,4.0834458000000495,,,,,,,,,,,,,,,,,,876446,001,2026-01-30_11h20.33.129,Test,,2025.2.4,60.007044827070835,2026-01-30 11h20.36.719760 +1300,
fractals/fractal_complex_pair1_a_bright.png,fractals/fractal_complex_pair1_a_bright.png,fractals/fractal_complex_pair1_b_bright.png,5,10,0,0,0,0,0,0,0,,,,,,,,,,,,,,,,,263,4.3304681999999275,0.004568762249416775,0.05508199334144592,1,4.100042500000086,,,,,,,,,,,,,,,,,,876446,001,2026-01-30_11h20.33.129,Test,,2025.2.4,60.007044827070835,2026-01-30 11h20.36.719760 +1300,
fractals/fractal_complex_pair1_a_bright.png,fractals/fractal_complex_pair1_a_bright.png,fractals/fractal_complex_pair1_b_bright.png,5,10,0,0,0,0,0,0,0,,,,,,,,,,,,,,,,,264,4.347342299999923,0.0036945343017578125,0.05563192069530487,1,4.116918400000031,,,,,,,,,,,,,,,,,,876446,001,2026-01-30_11h20.33.129,Test,,2025.2.4,60.007044827070835,2026-01-30 11h20.36.719760 +1300,
fractals/fractal_complex_pair1_a_bright.png,fractals/fractal_complex_pair1_a_bright.png,fractals/fractal_complex_pair1_b_bright.png,5,10,0,0,0,0,0,0,0,,,,,,,,,,,,,,,,,265,4.363785099999973,0.003627989027235243,0.055110663175582886,1,4.133359499999983,,,,,,,,,,,,,,,,,,876446,001,2026-01-30_11h20.33.129,Test,,2025.2.4,60.007044827070835,2026-01-30 11h20.36.719760 +1300,
